sID,trial_number,block_number,response,response_button,response_time,correct,outcome,previous_outcome,stay_shift,new_block,correct_polygon,rewarded_polygon,prob_triangle_rewarded,position_triangle
3,1,1,triangle,left,0.57011829000021,1,win,[],[],1,triangle,triangle,0.8,left
3,2,1,triangle,left,0.537344690000282,1,win,win,stay,0,triangle,triangle,0.8,left
3,3,1,triangle,right,0.637404390000484,1,win,win,stay,0,triangle,triangle,0.8,right
3,4,1,triangle,right,0.304141190000337,1,lose,win,stay,0,triangle,circle,0.8,right
3,5,1,triangle,right,0.454641689999335,1,win,lose,stay,0,triangle,triangle,0.8,right
3,6,1,triangle,right,0.454470190000393,1,win,win,stay,0,triangle,triangle,0.8,right
3,7,1,triangle,left,0.538374589999876,1,win,win,stay,0,triangle,triangle,0.8,left
3,8,1,circle,left,0.553792790001353,0,lose,win,shift,0,triangle,triangle,0.8,right
3,9,1,triangle,left,0.621291290000045,1,lose,lose,shift,0,triangle,circle,0.8,left
3,10,1,triangle,right,0.537636990000465,1,win,lose,stay,0,triangle,triangle,0.8,right
3,11,2,triangle,right,0.471713190000628,0,lose,win,stay,1,circle,circle,0.19999999999999996,right
3,12,2,triangle,left,0.454155890000948,0,win,lose,stay,0,circle,triangle,0.19999999999999996,left
3,13,2,circle,left,0.705177390000244,1,win,win,shift,0,circle,circle,0.19999999999999996,right
3,14,2,triangle,left,0.52058678999947,0,lose,win,shift,0,circle,circle,0.19999999999999996,left
3,15,2,circle,left,0.587485390000438,1,win,lose,shift,0,circle,circle,0.19999999999999996,right
3,16,2,circle,right,0.403723689999424,1,lose,win,stay,0,circle,triangle,0.19999999999999996,left
3,17,2,triangle,left,0.455689490000623,0,lose,lose,shift,0,circle,circle,0.19999999999999996,left
3,18,2,triangle,left,0.321295589999863,0,lose,lose,stay,0,circle,circle,0.19999999999999996,left
3,19,2,circle,left,0.538750889999392,1,win,lose,shift,0,circle,circle,0.19999999999999996,right
3,20,2,circle,right,0.704883390000759,1,win,win,stay,0,circle,circle,0.19999999999999996,left
3,21,2,circle,right,0.50518768999973,1,win,win,stay,0,circle,circle,0.19999999999999996,left
3,22,2,circle,right,0.454108290000477,1,win,win,stay,0,circle,circle,0.19999999999999996,left
3,23,3,circle,right,0.454438790000495,0,win,win,stay,1,triangle,circle,0.5,left
3,24,3,circle,right,0.287964690000081,0,lose,win,stay,0,triangle,triangle,0.5,left
3,25,3,circle,left,0.721970489999876,0,lose,lose,stay,0,triangle,triangle,0.5,right
3,26,3,circle,left,0.304566589999922,0,win,lose,stay,0,triangle,circle,0.5,right
3,27,3,circle,left,0.338828890000514,0,lose,win,stay,0,triangle,triangle,0.5,right
3,28,3,triangle,left,0.521680390001166,1,win,lose,shift,0,triangle,triangle,0.5,left
3,29,3,triangle,right,0.38785278999967,1,lose,win,stay,0,triangle,circle,0.5,right
3,30,3,circle,left,0.50556479000079,0,win,lose,shift,0,triangle,circle,0.5,right
3,31,3,circle,right,0.454403089999687,0,lose,win,stay,0,triangle,triangle,0.5,left
3,32,3,triangle,left,0.437582389999989,1,win,lose,shift,0,triangle,triangle,0.5,left
3,33,3,triangle,right,0.354556589999447,1,win,win,stay,0,triangle,triangle,0.5,right
3,34,3,triangle,left,0.470546890000151,1,win,win,stay,0,triangle,triangle,0.5,left
3,35,3,circle,right,0.588164490000054,0,win,win,shift,0,triangle,circle,0.5,left
3,36,3,triangle,right,1.03795079000065,1,lose,win,shift,0,triangle,circle,0.5,right
3,37,3,circle,right,1.40494079000018,0,lose,lose,shift,0,triangle,triangle,0.5,left
3,38,3,triangle,left,0.687896090000322,1,win,lose,shift,0,triangle,triangle,0.5,left
3,39,4,triangle,right,0.437288389999594,0,lose,win,stay,1,circle,circle,0.19999999999999996,right
3,40,4,triangle,left,0.554109089999656,0,win,lose,stay,0,circle,triangle,0.19999999999999996,left
3,41,4,triangle,right,0.58737439000015,0,lose,win,stay,0,circle,circle,0.19999999999999996,right
3,42,4,triangle,left,0.487710989999869,0,lose,lose,stay,0,circle,circle,0.19999999999999996,left
3,43,4,triangle,right,0.521886190000259,0,lose,lose,stay,0,circle,circle,0.19999999999999996,right
3,44,4,circle,right,0.388945290000265,1,win,lose,shift,0,circle,circle,0.19999999999999996,left
3,45,4,circle,left,0.38743568999962,1,win,win,stay,0,circle,circle,0.19999999999999996,right
3,46,4,circle,right,0.571152790000269,1,win,win,stay,0,circle,circle,0.19999999999999996,left
3,47,4,circle,right,0.453666690000318,1,win,win,stay,0,circle,circle,0.19999999999999996,left
3,48,4,circle,right,0.370589490000384,1,lose,win,stay,0,circle,triangle,0.19999999999999996,left
3,49,4,triangle,left,0.403879890000098,0,lose,lose,shift,0,circle,circle,0.19999999999999996,left
3,50,4,triangle,right,0.353844389998812,0,lose,lose,stay,0,circle,circle,0.19999999999999996,right
3,51,4,circle,left,0.338331790000666,1,win,lose,shift,0,circle,circle,0.19999999999999996,right
3,52,4,circle,right,0.704507789999298,1,lose,win,stay,0,circle,triangle,0.19999999999999996,left
3,53,5,triangle,left,0.388579489999756,1,win,lose,shift,1,triangle,triangle,0.8,left
3,54,5,triangle,right,0.705473190000703,1,win,win,stay,0,triangle,triangle,0.8,right
3,55,5,triangle,left,0.454827589999695,1,win,win,stay,0,triangle,triangle,0.8,left
3,56,5,triangle,right,0.520437390000552,1,win,win,stay,0,triangle,triangle,0.8,right
3,57,5,triangle,right,0.404939990001367,1,win,win,stay,0,triangle,triangle,0.8,right
3,58,5,triangle,right,0.487756790000276,1,win,win,stay,0,triangle,triangle,0.8,right
3,59,5,triangle,left,0.471452390000195,1,lose,win,stay,0,triangle,circle,0.8,left
3,60,5,circle,left,0.555340789999718,0,lose,lose,shift,0,triangle,triangle,0.8,right
3,61,5,triangle,left,0.387360190000436,1,win,lose,shift,0,triangle,triangle,0.8,left
3,62,5,triangle,left,0.422413190000952,1,win,win,stay,0,triangle,triangle,0.8,left
3,63,6,triangle,right,0.588568190001752,0,lose,win,stay,1,circle,circle,0.19999999999999996,right
3,64,6,triangle,left,0.68806579000011,0,lose,lose,stay,0,circle,circle,0.19999999999999996,left
3,65,6,circle,right,0.387451789999432,1,win,lose,shift,0,circle,circle,0.19999999999999996,left
3,66,6,triangle,left,0.37142509000023,0,lose,win,shift,0,circle,circle,0.19999999999999996,left
3,67,6,triangle,left,0.388925289999861,0,lose,lose,stay,0,circle,circle,0.19999999999999996,left
3,68,6,circle,right,0.322233989999404,1,win,lose,shift,0,circle,circle,0.19999999999999996,left
3,69,6,circle,right,0.338427389999197,1,win,win,stay,0,circle,circle,0.19999999999999996,left
3,70,6,circle,left,0.404978690000462,1,win,win,stay,0,circle,circle,0.19999999999999996,right
3,71,6,circle,left,0.570804790000693,1,lose,win,stay,0,circle,triangle,0.19999999999999996,right
3,72,6,triangle,left,0.805492190000223,0,lose,lose,shift,0,circle,circle,0.19999999999999996,left
3,73,6,circle,right,0.939051390000714,1,win,lose,shift,0,circle,circle,0.19999999999999996,left
3,74,6,triangle,left,0.754616289999831,0,lose,win,shift,0,circle,circle,0.19999999999999996,left
3,75,6,circle,left,0.655032290000236,1,win,lose,shift,0,circle,circle,0.19999999999999996,right
3,76,6,circle,left,0.38863309000044,1,win,win,stay,0,circle,circle,0.19999999999999996,right
3,77,7,circle,right,1.00538509000035,0,lose,win,stay,1,triangle,triangle,0.5,left
3,78,7,circle,left,0.472421290000966,0,win,lose,stay,0,triangle,circle,0.5,right
3,79,7,circle,left,0.437644690000525,0,lose,win,stay,0,triangle,triangle,0.5,right
3,80,7,circle,right,1.13750118999997,0,win,lose,stay,0,triangle,circle,0.5,left
3,81,7,triangle,left,0.921806790000119,1,win,win,shift,0,triangle,triangle,0.5,left
3,82,7,circle,right,0.987789890000386,0,lose,win,shift,0,triangle,triangle,0.5,left
3,83,7,triangle,left,0.471971889999622,1,lose,lose,shift,0,triangle,circle,0.5,left
3,84,7,circle,right,1.08766189000016,0,win,lose,shift,0,triangle,circle,0.5,left
3,85,7,circle,right,0.339226889999736,0,lose,win,stay,0,triangle,triangle,0.5,left
3,86,7,circle,right,0.372387290000916,0,win,lose,stay,0,triangle,circle,0.5,left
3,87,7,circle,left,0.670737190000182,0,win,win,stay,0,triangle,circle,0.5,right
3,88,7,circle,left,0.47061199000018,0,lose,win,stay,0,triangle,triangle,0.5,right
3,89,7,triangle,left,0.620864989999973,1,lose,lose,shift,0,triangle,circle,0.5,left
3,90,7,circle,left,0.571778090000407,0,win,lose,shift,0,triangle,circle,0.5,right
3,91,7,circle,right,0.42114298999968,0,win,win,stay,0,triangle,circle,0.5,left
3,92,7,circle,right,1.23796549000053,0,win,win,stay,0,triangle,circle,0.5,left
3,93,8,triangle,left,0.505706390000341,1,win,win,shift,1,triangle,triangle,0.8,left
3,94,8,circle,right,0.38707789,0,lose,win,shift,0,triangle,triangle,0.8,left
3,95,8,circle,left,1.12113619000047,0,lose,lose,stay,0,triangle,triangle,0.8,right
3,96,8,triangle,right,0.388338090000616,1,win,lose,shift,0,triangle,triangle,0.8,right
3,97,8,triangle,right,0.605061090000163,1,win,win,stay,0,triangle,triangle,0.8,right
3,98,8,triangle,left,0.58832928999982,1,lose,win,stay,0,triangle,circle,0.8,left
3,99,8,triangle,right,1.07071128999996,1,win,lose,stay,0,triangle,triangle,0.8,right
3,100,8,triangle,right,0.438071890000174,1,win,win,stay,0,triangle,triangle,0.8,right
3,101,8,triangle,right,0.504444190000868,1,win,win,stay,0,triangle,triangle,0.8,right
3,102,8,triangle,left,0.387771990001056,1,lose,win,stay,0,triangle,circle,0.8,left
3,103,9,triangle,right,0.838684990000729,0,lose,lose,stay,1,circle,circle,0.19999999999999996,right
3,104,9,circle,left,0.954939889999878,1,win,lose,shift,0,circle,circle,0.19999999999999996,right
3,105,9,circle,left,0.355671989999792,1,win,win,stay,0,circle,circle,0.19999999999999996,right
3,106,9,circle,right,0.67096028999913,1,win,win,stay,0,circle,circle,0.19999999999999996,left
3,107,9,circle,right,0.388801090000925,1,win,win,stay,0,circle,circle,0.19999999999999996,left
3,108,9,circle,right,0.504646890000004,1,win,win,stay,0,circle,circle,0.19999999999999996,left
3,109,9,circle,left,0.73879468999985,1,win,win,stay,0,circle,circle,0.19999999999999996,right
3,110,9,circle,right,0.287906389999989,1,win,win,stay,0,circle,circle,0.19999999999999996,left
3,111,9,circle,left,0.470487390000017,1,win,win,stay,0,circle,circle,0.19999999999999996,right
3,112,9,circle,left,0.487727489999997,1,win,win,stay,0,circle,circle,0.19999999999999996,right
3,113,10,circle,right,0.488531390000389,0,lose,win,stay,1,triangle,triangle,0.8,left
3,114,10,circle,left,0.421574689999943,0,lose,lose,stay,0,triangle,triangle,0.8,right
3,115,10,circle,left,0.338005290000183,0,lose,lose,stay,0,triangle,triangle,0.8,right
3,116,10,triangle,left,0.421574490000239,1,win,lose,shift,0,triangle,triangle,0.8,left
3,117,10,triangle,left,0.388871189999918,1,win,win,stay,0,triangle,triangle,0.8,left
3,118,10,triangle,left,0.670863989999816,1,win,win,stay,0,triangle,triangle,0.8,left
3,119,10,triangle,left,0.505420290000075,1,lose,win,stay,0,triangle,circle,0.8,left
3,120,10,circle,left,0.4038254900006,0,win,lose,shift,0,triangle,circle,0.8,right
3,121,10,circle,left,0.371717690000878,0,win,win,stay,0,triangle,circle,0.8,right
3,122,10,circle,left,0.387664189999668,0,win,win,stay,0,triangle,circle,0.8,right
3,123,10,circle,left,0.388649490000716,0,lose,win,stay,0,triangle,triangle,0.8,right
3,124,10,circle,right,0.772388989999854,0,lose,lose,stay,0,triangle,triangle,0.8,left
3,125,10,triangle,right,0.471682990000772,1,win,lose,shift,0,triangle,triangle,0.8,right
3,126,10,triangle,right,0.387211690000186,1,win,win,stay,0,triangle,triangle,0.8,right
3,127,10,triangle,right,0.42166269000063,1,win,win,stay,0,triangle,triangle,0.8,right
3,128,10,triangle,right,0.854834390000178,1,win,win,stay,0,triangle,triangle,0.8,right
3,129,11,triangle,right,0.305827290000707,0,lose,win,stay,1,circle,circle,0.5,right
3,130,11,triangle,left,0.653671290000602,0,win,lose,stay,0,circle,triangle,0.5,left
3,131,11,triangle,right,0.371574790000523,0,win,win,stay,0,circle,triangle,0.5,right
3,132,11,triangle,left,0.353463090000332,0,lose,win,stay,0,circle,circle,0.5,left
3,133,11,triangle,right,0.671856590000061,0,win,lose,stay,0,circle,triangle,0.5,right
3,134,11,triangle,right,0.370616590000282,0,win,win,stay,0,circle,triangle,0.5,right
3,135,11,triangle,left,0.388852290000614,0,lose,win,stay,0,circle,circle,0.5,left
3,136,11,circle,right,0.3379084900007,1,win,lose,shift,0,circle,circle,0.5,left
3,137,11,circle,right,0.272079989999838,1,win,win,stay,0,circle,circle,0.5,left
3,138,11,circle,right,0.337727990000531,1,win,win,stay,0,circle,circle,0.5,left
3,139,11,circle,right,0.33881638999992,1,lose,win,stay,0,circle,triangle,0.5,left
3,140,11,triangle,right,0.605521890001,0,lose,lose,shift,0,circle,circle,0.5,right
3,141,11,circle,right,0.587641390000499,1,win,lose,shift,0,circle,circle,0.5,left
3,142,11,circle,right,0.454971590001151,1,win,win,stay,0,circle,circle,0.5,left
3,143,11,circle,right,1.08685908999996,1,win,win,stay,0,circle,circle,0.5,left
3,144,12,triangle,left,0.537939090000691,1,win,win,shift,1,triangle,triangle,0.8,left
3,145,12,triangle,left,0.371004890000222,1,win,win,stay,0,triangle,triangle,0.8,left
3,146,12,triangle,left,0.337790490000771,1,win,win,stay,0,triangle,triangle,0.8,left
3,147,12,triangle,left,0.472010489999775,1,win,win,stay,0,triangle,triangle,0.8,left
3,148,12,circle,left,0.672043790000316,0,lose,win,shift,0,triangle,triangle,0.8,right
3,149,12,triangle,right,0.704947289999836,1,lose,lose,shift,0,triangle,circle,0.8,right
3,150,12,triangle,left,0.254471290000765,1,win,lose,stay,0,triangle,triangle,0.8,left
3,151,12,triangle,left,0.321130590000394,1,win,win,stay,0,triangle,triangle,0.8,left
3,152,12,triangle,left,0.371805690000656,1,win,win,stay,0,triangle,triangle,0.8,left
3,153,12,triangle,left,0.421484689999488,1,win,win,stay,0,triangle,triangle,0.8,left
3,154,13,triangle,left,0.471573790000548,0,lose,win,stay,1,circle,circle,0.19999999999999996,left
3,155,13,circle,left,0.622023689999878,1,win,lose,shift,0,circle,circle,0.19999999999999996,right
3,156,13,triangle,left,0.37155649000033,0,lose,win,shift,0,circle,circle,0.19999999999999996,left
3,157,13,triangle,right,0.338728790000459,0,lose,lose,stay,0,circle,circle,0.19999999999999996,right
3,158,13,triangle,left,0.370542890001161,0,lose,lose,stay,0,circle,circle,0.19999999999999996,left
3,159,13,triangle,left,0.272110090000751,0,lose,lose,stay,0,circle,circle,0.19999999999999996,left
3,160,13,circle,right,0.305089790000238,1,win,lose,shift,0,circle,circle,0.19999999999999996,left
3,161,13,triangle,right,0.437173189999157,0,lose,win,shift,0,circle,circle,0.19999999999999996,right
3,162,13,circle,right,0.354318589999821,1,win,lose,shift,0,circle,circle,0.19999999999999996,left
3,163,13,circle,left,0.354027289999067,1,win,win,stay,0,circle,circle,0.19999999999999996,right
3,164,13,circle,left,0.472234390000267,1,win,win,stay,0,circle,circle,0.19999999999999996,right
3,165,13,circle,right,0.686972189999324,1,win,win,stay,0,circle,circle,0.19999999999999996,left
3,166,13,circle,left,0.472101689999363,1,win,win,stay,0,circle,circle,0.19999999999999996,right
3,167,13,circle,left,0.437082790000204,1,lose,win,stay,0,circle,triangle,0.19999999999999996,right
3,168,14,circle,right,0.771379589999924,0,win,lose,stay,1,triangle,circle,0.5,left
3,169,14,triangle,right,1.08732199000042,1,lose,win,shift,0,triangle,circle,0.5,right
3,170,14,circle,left,0.454281090000222,0,lose,lose,shift,0,triangle,triangle,0.5,right
3,171,14,circle,right,0.604168190000564,0,win,lose,stay,0,triangle,circle,0.5,left
3,172,14,circle,right,0.472682190000342,0,win,win,stay,0,triangle,circle,0.5,left
3,173,14,triangle,right,0.853293189999022,1,lose,win,shift,0,triangle,circle,0.5,right
3,174,14,circle,right,0.43813308999961,0,win,lose,shift,0,triangle,circle,0.5,left
3,175,14,circle,left,0.889145889999782,0,lose,win,stay,0,triangle,triangle,0.5,right
3,176,14,circle,left,0.97084808999989,0,lose,lose,stay,0,triangle,triangle,0.5,right
3,177,14,triangle,left,0.421304189999319,1,win,lose,shift,0,triangle,triangle,0.5,left
3,178,14,triangle,right,0.404929889999949,1,win,win,stay,0,triangle,triangle,0.5,right
3,179,14,triangle,right,0.438721590000569,1,win,win,stay,0,triangle,triangle,0.5,right
3,180,14,triangle,right,0.487939290001123,1,win,win,stay,0,triangle,triangle,0.5,right
3,181,14,triangle,left,0.60533328999918,1,win,win,stay,0,triangle,triangle,0.5,left
3,182,14,triangle,left,0.35539899000014,1,lose,win,stay,0,triangle,circle,0.5,left
3,183,15,triangle,right,0.820718490000218,0,lose,lose,stay,1,circle,circle,0.19999999999999996,right
3,184,15,circle,right,0.388774189999822,1,win,lose,shift,0,circle,circle,0.19999999999999996,left
3,185,15,circle,right,0.487081190000026,1,win,win,stay,0,circle,circle,0.19999999999999996,left
3,186,15,circle,right,0.471218390000104,1,win,win,stay,0,circle,circle,0.19999999999999996,left
3,187,15,circle,left,0.637749890001032,1,win,win,stay,0,circle,circle,0.19999999999999996,right
3,188,15,circle,left,0.521353490000365,1,win,win,stay,0,circle,circle,0.19999999999999996,right
3,189,15,triangle,left,0.588367090000247,0,lose,win,shift,0,circle,circle,0.19999999999999996,left
3,190,15,circle,left,0.471603490000234,1,win,lose,shift,0,circle,circle,0.19999999999999996,right
3,191,15,circle,left,0.854904689999785,1,win,win,stay,0,circle,circle,0.19999999999999996,right
3,192,15,circle,right,0.370602390000386,1,win,win,stay,0,circle,circle,0.19999999999999996,left
3,193,16,circle,right,0.405058090000239,0,lose,win,stay,1,triangle,triangle,0.8,left
3,194,16,triangle,right,0.486430789999758,1,win,lose,shift,0,triangle,triangle,0.8,right
3,195,16,triangle,right,0.388016890000472,1,win,win,stay,0,triangle,triangle,0.8,right
3,196,16,triangle,right,0.355620190000081,1,win,win,stay,0,triangle,triangle,0.8,right
3,197,16,triangle,right,0.353790789999039,1,lose,win,stay,0,triangle,circle,0.8,right
3,198,16,triangle,right,0.438428590000512,1,win,lose,stay,0,triangle,triangle,0.8,right
3,199,16,triangle,left,0.437386790001256,1,win,win,stay,0,triangle,triangle,0.8,left
3,200,16,triangle,right,0.420616590000463,1,win,win,stay,0,triangle,triangle,0.8,right
3,201,16,triangle,right,0.75495859000057,1,win,win,stay,0,triangle,triangle,0.8,right
3,202,16,triangle,right,0.638862089999748,1,win,win,stay,0,triangle,triangle,0.8,right
3,203,17,triangle,right,0.337339789999533,0,lose,win,stay,1,circle,circle,0.5,right
3,204,17,triangle,right,0.772245790000852,0,lose,lose,stay,0,circle,circle,0.5,right
3,205,17,triangle,left,0.38845369000046,0,lose,lose,stay,0,circle,circle,0.5,left
3,206,17,circle,right,0.970699190000232,1,win,lose,shift,0,circle,circle,0.5,left
3,207,17,circle,right,0.422066590000213,1,lose,win,stay,0,circle,triangle,0.5,left
3,208,17,triangle,right,0.404855490000045,0,lose,lose,shift,0,circle,circle,0.5,right
3,209,17,triangle,right,0.304501890000211,0,win,lose,stay,0,circle,triangle,0.5,right
3,210,17,triangle,right,0.371906190000118,0,lose,win,stay,0,circle,circle,0.5,right
3,211,17,triangle,right,0.320509990000573,0,win,lose,stay,0,circle,triangle,0.5,right
3,212,17,triangle,left,0.537228289998893,0,lose,win,stay,0,circle,circle,0.5,left
3,213,17,circle,right,0.388772190000054,1,lose,lose,shift,0,circle,triangle,0.5,left
3,214,17,triangle,left,0.604378890000589,0,win,lose,shift,0,circle,triangle,0.5,left
3,215,17,triangle,right,0.454331189999721,0,win,win,stay,0,circle,triangle,0.5,right
3,216,17,triangle,left,0.470479790000354,0,win,win,stay,0,circle,triangle,0.5,left
3,217,17,triangle,left,0.472076689999994,0,lose,win,stay,0,circle,circle,0.5,left
3,218,17,triangle,left,0.405631990000074,0,win,lose,stay,0,circle,triangle,0.5,left
3,219,18,triangle,right,0.621973989999788,1,win,win,stay,1,triangle,triangle,0.8,right
3,220,18,triangle,right,0.322028390000014,1,win,win,stay,0,triangle,triangle,0.8,right
3,221,18,triangle,left,0.437364489999709,1,win,win,stay,0,triangle,triangle,0.8,left
3,222,18,triangle,right,0.455181889999949,1,lose,win,stay,0,triangle,circle,0.8,right
3,223,18,triangle,left,0.554374889999963,1,win,lose,stay,0,triangle,triangle,0.8,left
3,224,18,triangle,right,0.388124090000019,1,win,win,stay,0,triangle,triangle,0.8,right
3,225,18,triangle,left,0.421192190000511,1,win,win,stay,0,triangle,triangle,0.8,left
3,226,18,triangle,left,0.437854790000529,1,win,win,stay,0,triangle,triangle,0.8,left
3,227,18,triangle,left,0.405395490000046,1,win,win,stay,0,triangle,triangle,0.8,left
3,228,18,triangle,left,0.48899018999964,1,win,win,stay,0,triangle,triangle,0.8,left
3,229,19,triangle,right,0.704212290000214,0,lose,win,stay,1,circle,circle,0.19999999999999996,right
3,230,19,triangle,right,0.538074490000326,0,lose,lose,stay,0,circle,circle,0.19999999999999996,right
3,231,19,circle,left,0.837845689999995,1,win,lose,shift,0,circle,circle,0.19999999999999996,right
3,232,19,circle,right,0.337376190000214,1,win,win,stay,0,circle,circle,0.19999999999999996,left
3,233,19,circle,right,0.421523590000106,1,win,win,stay,0,circle,circle,0.19999999999999996,left
3,234,19,circle,left,0.48835568999948,1,win,win,stay,0,circle,circle,0.19999999999999996,right
3,235,19,circle,left,0.570883090000279,1,lose,win,stay,0,circle,triangle,0.19999999999999996,right
3,236,19,triangle,right,0.421829390000312,0,lose,lose,shift,0,circle,circle,0.19999999999999996,right
3,237,19,triangle,right,0.471165090000795,0,lose,lose,stay,0,circle,circle,0.19999999999999996,right
3,238,19,circle,right,0.421615290000773,1,win,lose,shift,0,circle,circle,0.19999999999999996,left
3,239,19,circle,left,0.521614289999889,1,win,win,stay,0,circle,circle,0.19999999999999996,right
3,240,20,circle,right,0.938463090000369,0,lose,win,stay,1,triangle,triangle,0.8,left
3,241,20,triangle,left,0.688265490000049,1,win,lose,shift,0,triangle,triangle,0.8,left
3,242,20,triangle,left,0.320506489999389,1,lose,win,stay,0,triangle,circle,0.8,left
3,243,20,triangle,right,0.488873490000515,1,win,lose,stay,0,triangle,triangle,0.8,right
3,244,20,triangle,left,0.322350790000201,1,win,win,stay,0,triangle,triangle,0.8,left
3,245,20,triangle,left,0.404608890000418,1,win,win,stay,0,triangle,triangle,0.8,left
3,246,20,triangle,left,0.321757189999516,1,win,win,stay,0,triangle,triangle,0.8,left
3,247,20,triangle,left,0.421165790000487,1,win,win,stay,0,triangle,triangle,0.8,left
3,248,20,triangle,left,0.537468389999958,1,win,win,stay,0,triangle,triangle,0.8,left
3,249,20,triangle,left,0.471423390000382,1,win,win,stay,0,triangle,triangle,0.8,left
3,250,21,triangle,right,0.621210489999612,0,win,win,stay,1,circle,triangle,0.5,right
6,1,1,circle,left,0.788291049999316,1,win,[],[],1,circle,circle,0.2,right
6,2,1,circle,left,0.704556049999155,1,win,win,stay,0,circle,circle,0.2,right
6,3,1,circle,left,0.654768649999824,1,win,win,stay,0,circle,circle,0.2,right
6,4,1,circle,left,0.370911350000824,1,win,win,stay,0,circle,circle,0.2,right
6,5,1,circle,left,0.522011049999492,1,win,win,stay,0,circle,circle,0.2,right
6,6,1,circle,left,0.355177650000769,1,win,win,stay,0,circle,circle,0.2,right
6,7,1,circle,left,0.455206349999571,1,win,win,stay,0,circle,circle,0.2,right
6,8,1,circle,left,0.404176449999795,1,win,win,stay,0,circle,circle,0.2,right
6,9,1,circle,left,0.338094449998607,1,win,win,stay,0,circle,circle,0.2,right
6,10,1,circle,right,0.671890050000002,1,win,win,stay,0,circle,circle,0.2,left
6,11,2,circle,right,0.355686550001337,0,lose,win,stay,1,triangle,triangle,0.8,left
6,12,2,triangle,right,0.654776949999359,1,lose,lose,shift,0,triangle,circle,0.8,right
6,13,2,circle,left,0.537831649999134,0,lose,lose,shift,0,triangle,triangle,0.8,right
6,14,2,triangle,left,0.837490949999847,1,win,lose,shift,0,triangle,triangle,0.8,left
6,15,2,triangle,left,0.454495250000036,1,win,win,stay,0,triangle,triangle,0.8,left
6,16,2,triangle,left,0.455153549999523,1,lose,win,stay,0,triangle,circle,0.8,left
6,17,2,triangle,right,0.870441949999076,1,lose,lose,stay,0,triangle,circle,0.8,right
6,18,2,circle,right,0.620307550001598,0,lose,lose,shift,0,triangle,triangle,0.8,left
6,19,2,circle,left,1.12203125000087,0,lose,lose,stay,0,triangle,triangle,0.8,right
6,20,2,triangle,left,1.60454765000031,1,win,lose,shift,0,triangle,triangle,0.8,left
6,21,2,triangle,left,0.504057350000949,1,win,win,stay,0,triangle,triangle,0.8,left
6,22,3,triangle,right,0.604867050000394,0,win,win,stay,1,circle,triangle,0.5,right
6,23,3,triangle,right,0.454879549999532,0,lose,win,stay,0,circle,circle,0.5,right
6,24,3,triangle,left,0.555343550000543,0,lose,lose,stay,0,circle,circle,0.5,left
6,25,3,circle,right,0.421072250001089,1,win,lose,shift,0,circle,circle,0.5,left
6,26,3,circle,right,0.354320150001513,1,lose,win,stay,0,circle,triangle,0.5,left
6,27,3,triangle,right,0.722281149999617,0,lose,lose,shift,0,circle,circle,0.5,right
6,28,3,circle,left,0.737414149998585,1,lose,lose,shift,0,circle,triangle,0.5,right
6,29,3,circle,right,0.337995150001007,1,win,lose,stay,0,circle,circle,0.5,left
6,30,3,circle,left,0.555651850001595,1,win,win,stay,0,circle,circle,0.5,right
6,31,3,circle,left,0.471114649999436,1,lose,win,stay,0,circle,triangle,0.5,right
6,32,3,triangle,right,0.488297449999664,0,win,lose,shift,0,circle,triangle,0.5,right
6,33,3,triangle,left,0.587310349999825,0,lose,win,stay,0,circle,circle,0.5,left
6,34,3,triangle,right,0.754230550001012,0,win,lose,stay,0,circle,triangle,0.5,right
6,35,3,triangle,right,0.388227549998192,0,win,win,stay,0,circle,triangle,0.5,right
6,36,3,triangle,left,0.537844349999432,0,win,win,stay,0,circle,triangle,0.5,left
6,37,3,triangle,left,0.48764035000022,0,lose,win,stay,0,circle,circle,0.5,left
6,38,4,triangle,right,0.470874550001099,1,win,lose,stay,1,triangle,triangle,0.8,right
6,39,4,triangle,right,0.405617449998317,1,lose,win,stay,0,triangle,circle,0.8,right
6,40,4,circle,left,0.388632650001455,0,lose,lose,shift,0,triangle,triangle,0.8,right
6,41,4,triangle,left,0.47131575000094,1,win,lose,shift,0,triangle,triangle,0.8,left
6,42,4,triangle,left,0.388137650001227,1,win,win,stay,0,triangle,triangle,0.8,left
6,43,4,triangle,right,0.50351425000008,1,win,win,stay,0,triangle,triangle,0.8,right
6,44,4,triangle,left,0.505344549999791,1,win,win,stay,0,triangle,triangle,0.8,left
6,45,4,triangle,right,0.437453450000248,1,lose,win,stay,0,triangle,circle,0.8,right
6,46,4,circle,left,0.339453049999065,0,lose,lose,shift,0,triangle,triangle,0.8,right
6,47,4,triangle,left,0.454055649997827,1,win,lose,shift,0,triangle,triangle,0.8,left
6,48,5,circle,left,1.35452495000027,1,win,win,shift,1,circle,circle,0.2,right
6,49,5,circle,right,0.4715560500008,1,win,win,stay,0,circle,circle,0.2,left
6,50,5,circle,right,0.555495550001069,1,win,win,stay,0,circle,circle,0.2,left
6,51,5,circle,left,0.488192749999143,1,win,win,stay,0,circle,circle,0.2,right
6,52,5,circle,right,0.455096350000531,1,win,win,stay,0,circle,circle,0.2,left
6,53,5,circle,right,0.503937650000807,1,win,win,stay,0,circle,circle,0.2,left
6,54,5,circle,right,0.321727450000253,1,win,win,stay,0,circle,circle,0.2,left
6,55,5,circle,right,0.421045150000282,1,lose,win,stay,0,circle,triangle,0.2,left
6,56,5,circle,left,0.470911549999073,1,win,lose,stay,0,circle,circle,0.2,right
6,57,5,circle,right,0.354465349999373,1,win,win,stay,0,circle,circle,0.2,left
6,58,6,circle,left,0.521247849999781,0,lose,win,stay,1,triangle,triangle,0.8,right
6,59,6,circle,left,0.354804249998779,0,win,lose,stay,0,triangle,circle,0.8,right
6,60,6,circle,left,0.353989549999824,0,lose,win,stay,0,triangle,triangle,0.8,right
6,61,6,circle,left,0.37081014999967,0,win,lose,stay,0,triangle,circle,0.8,right
6,62,6,circle,right,0.437178849999327,0,lose,win,stay,0,triangle,triangle,0.8,left
6,63,6,triangle,left,0.337335349999194,1,win,lose,shift,0,triangle,triangle,0.8,left
6,64,6,triangle,right,0.3540171500008,1,win,win,stay,0,triangle,triangle,0.8,right
6,65,6,triangle,left,1.00432224999895,1,win,win,stay,0,triangle,triangle,0.8,left
6,66,6,triangle,left,0.304350750000594,1,win,win,stay,0,triangle,triangle,0.8,left
6,67,6,triangle,right,0.387763849999828,1,win,win,stay,0,triangle,triangle,0.8,right
6,68,6,triangle,left,0.355659849999938,1,win,win,stay,0,triangle,triangle,0.8,left
6,69,6,triangle,left,0.420304850000321,1,win,win,stay,0,triangle,triangle,0.8,left
6,70,7,triangle,right,0.405609249999543,0,win,win,stay,1,circle,triangle,0.5,right
6,71,7,triangle,left,0.438353249999636,0,win,win,stay,0,circle,triangle,0.5,left
6,72,7,triangle,right,0.887750149999192,0,win,win,stay,0,circle,triangle,0.5,right
6,73,7,triangle,right,0.437671850002516,0,lose,win,stay,0,circle,circle,0.5,right
6,74,7,triangle,right,0.288044049999371,0,win,lose,stay,0,circle,triangle,0.5,right
6,75,7,triangle,right,0.321964350001508,0,win,win,stay,0,circle,triangle,0.5,right
6,76,7,triangle,right,0.404179350000049,0,lose,win,stay,0,circle,circle,0.5,right
6,77,7,circle,right,0.403624150001633,1,lose,lose,shift,0,circle,triangle,0.5,left
6,78,7,triangle,left,0.354273050001211,0,win,lose,shift,0,circle,triangle,0.5,left
6,79,7,triangle,right,0.421741850001126,0,win,win,stay,0,circle,triangle,0.5,right
6,80,7,triangle,right,0.455583850000039,0,lose,win,stay,0,circle,circle,0.5,right
6,81,7,circle,right,0.621800049999365,1,win,lose,shift,0,circle,circle,0.5,left
6,82,7,circle,right,0.488633450000634,1,lose,win,stay,0,circle,triangle,0.5,left
6,83,7,circle,right,0.287735250001788,1,lose,lose,stay,0,circle,triangle,0.5,left
6,84,7,triangle,left,0.354902749999383,0,lose,lose,shift,0,circle,circle,0.5,left
6,85,7,circle,left,0.371654049999051,1,win,lose,shift,0,circle,circle,0.5,right
6,86,8,circle,left,0.337720350000382,1,win,win,stay,1,circle,circle,0.2,right
6,87,8,circle,left,0.371335049998379,1,win,win,stay,0,circle,circle,0.2,right
6,88,8,circle,left,0.621406849997584,1,win,win,stay,0,circle,circle,0.2,right
6,89,8,circle,left,0.487095550000959,1,win,win,stay,0,circle,circle,0.2,right
6,90,8,circle,left,0.455066450000231,1,win,win,stay,0,circle,circle,0.2,right
6,91,8,circle,left,0.50426834999962,1,win,win,stay,0,circle,circle,0.2,right
6,92,8,circle,right,0.620976649999648,1,lose,win,stay,0,circle,triangle,0.2,left
6,93,8,triangle,left,0.388827049999236,0,lose,lose,shift,0,circle,circle,0.2,left
6,94,8,circle,left,0.354306250001173,1,win,lose,shift,0,circle,circle,0.2,right
6,95,8,circle,right,0.520461649999561,1,lose,win,stay,0,circle,triangle,0.2,left
6,96,9,circle,right,0.355614150001202,0,win,lose,stay,1,triangle,circle,0.8,left
6,97,9,circle,left,0.454565849999199,0,lose,win,stay,0,triangle,triangle,0.8,right
6,98,9,triangle,right,0.338471450000725,1,win,lose,shift,0,triangle,triangle,0.8,right
6,99,9,triangle,right,0.372322149998581,1,lose,win,stay,0,triangle,circle,0.8,right
6,100,9,triangle,left,0.521251450001728,1,win,lose,stay,0,triangle,triangle,0.8,left
6,101,9,triangle,right,0.454235350001909,1,win,win,stay,0,triangle,triangle,0.8,right
6,102,9,triangle,right,0.520681949999926,1,win,win,stay,0,triangle,triangle,0.8,right
6,103,9,triangle,left,0.505637250000291,1,lose,win,stay,0,triangle,circle,0.8,left
6,104,9,triangle,left,0.404767050000373,1,lose,lose,stay,0,triangle,circle,0.8,left
6,105,9,circle,right,0.354736350001986,0,lose,lose,shift,0,triangle,triangle,0.8,left
6,106,10,triangle,right,0.854637049998928,0,win,lose,shift,1,circle,triangle,0.2,right
6,107,10,triangle,left,0.703879249998863,0,lose,win,stay,0,circle,circle,0.2,left
6,108,10,triangle,right,0.954222949998439,0,win,lose,stay,0,circle,triangle,0.2,right
6,109,10,triangle,left,0.854624250001507,0,lose,win,stay,0,circle,circle,0.2,left
6,110,10,triangle,right,0.521369649999542,0,lose,lose,stay,0,circle,circle,0.2,right
6,111,10,triangle,left,0.455153349999819,0,win,lose,stay,0,circle,triangle,0.2,left
6,112,10,triangle,left,0.454026249999515,0,lose,win,stay,0,circle,circle,0.2,left
6,113,10,triangle,right,0.421192750001865,0,lose,lose,stay,0,circle,circle,0.2,right
6,114,10,triangle,right,0.621279850001883,0,lose,lose,stay,0,circle,circle,0.2,right
6,115,10,circle,left,0.353533350000362,1,win,lose,shift,0,circle,circle,0.2,right
6,116,10,circle,left,0.321939749999729,1,win,win,stay,0,circle,circle,0.2,right
6,117,10,circle,left,0.437769550000667,1,lose,win,stay,0,circle,triangle,0.2,right
6,118,10,circle,left,0.303615350001564,1,win,lose,stay,0,circle,circle,0.2,right
6,119,10,circle,right,0.704965150000135,1,win,win,stay,0,circle,circle,0.2,left
6,120,10,circle,right,0.622173249999832,1,win,win,stay,0,circle,circle,0.2,left
6,121,10,circle,left,0.488669650001611,1,win,win,stay,0,circle,circle,0.2,right
6,122,11,circle,left,0.471638650000386,0,win,win,stay,1,triangle,circle,0.5,right
6,123,11,circle,left,0.538293350000458,0,lose,win,stay,0,triangle,triangle,0.5,right
6,124,11,circle,right,1.23718785000165,0,win,lose,stay,0,triangle,circle,0.5,left
6,125,11,circle,right,0.588701449998553,0,win,win,stay,0,triangle,circle,0.5,left
6,126,11,circle,right,0.471819850001339,0,win,win,stay,0,triangle,circle,0.5,left
6,127,11,circle,right,0.522084349999204,0,win,win,stay,0,triangle,circle,0.5,left
6,128,11,circle,left,0.420896849998826,0,lose,win,stay,0,triangle,triangle,0.5,right
6,129,11,circle,left,0.320883850001337,0,lose,lose,stay,0,triangle,triangle,0.5,right
6,130,11,triangle,right,0.688869749999867,1,lose,lose,shift,0,triangle,circle,0.5,right
6,131,11,circle,left,0.289243150002221,0,lose,lose,shift,0,triangle,triangle,0.5,right
6,132,11,circle,right,0.471637350001402,0,lose,lose,stay,0,triangle,triangle,0.5,left
6,133,11,triangle,left,0.438953549999496,1,lose,lose,shift,0,triangle,circle,0.5,left
6,134,11,triangle,left,0.338749649999954,1,lose,lose,stay,0,triangle,circle,0.5,left
6,135,11,circle,right,0.237078349999138,0,lose,lose,shift,0,triangle,triangle,0.5,left
6,136,11,circle,right,0.253998149999461,0,win,lose,stay,0,triangle,circle,0.5,left
6,137,11,circle,left,0.455564050000248,0,lose,win,stay,0,triangle,triangle,0.5,right
6,138,12,triangle,left,1.15366355000151,0,win,lose,shift,1,circle,triangle,0.2,left
6,139,12,triangle,left,0.338651650001339,0,lose,win,stay,0,circle,circle,0.2,left
6,140,12,circle,left,1.72074785000041,1,win,lose,shift,0,circle,circle,0.2,right
6,141,12,circle,right,0.688141650000034,1,win,win,stay,0,circle,circle,0.2,left
6,142,12,circle,left,0.370528449999256,1,win,win,stay,0,circle,circle,0.2,right
6,143,12,circle,left,0.472289350002029,1,win,win,stay,0,circle,circle,0.2,right
6,144,12,circle,left,0.489008950000425,1,win,win,stay,0,circle,circle,0.2,right
6,145,12,circle,right,0.522376450000593,1,win,win,stay,0,circle,circle,0.2,left
6,146,12,circle,right,0.436991150001631,1,win,win,stay,0,circle,circle,0.2,left
6,147,12,circle,right,0.48865405000106,1,win,win,stay,0,circle,circle,0.2,left
6,148,13,circle,left,0.421868650000761,0,lose,win,stay,1,triangle,triangle,0.8,right
6,149,13,circle,left,0.405693950000568,0,lose,lose,stay,0,triangle,triangle,0.8,right
6,150,13,triangle,left,0.722252749999825,1,win,lose,shift,0,triangle,triangle,0.8,left
6,151,13,triangle,left,0.305652450000707,1,win,win,stay,0,triangle,triangle,0.8,left
6,152,13,triangle,right,0.438792650000323,1,win,win,stay,0,triangle,triangle,0.8,right
6,153,13,triangle,right,0.437795749998259,1,win,win,stay,0,triangle,triangle,0.8,right
6,154,13,triangle,left,0.470383249999941,1,win,win,stay,0,triangle,triangle,0.8,left
6,155,13,triangle,right,0.588841250000769,1,win,win,stay,0,triangle,triangle,0.8,right
6,156,13,triangle,right,0.604764150000847,1,win,win,stay,0,triangle,triangle,0.8,right
6,157,13,triangle,right,0.455522550000751,1,win,win,stay,0,triangle,triangle,0.8,right
6,158,14,triangle,right,0.437689750000573,0,win,win,stay,1,circle,triangle,0.5,right
6,159,14,triangle,right,0.405629850001787,0,lose,win,stay,0,circle,circle,0.5,right
6,160,14,triangle,left,0.704273750001448,0,win,lose,stay,0,circle,triangle,0.5,left
6,161,14,triangle,right,0.355180950000431,0,lose,win,stay,0,circle,circle,0.5,right
6,162,14,circle,left,0.421024549999856,1,lose,lose,shift,0,circle,triangle,0.5,right
6,163,14,circle,left,0.421063549998507,1,win,lose,stay,0,circle,circle,0.5,right
6,164,14,circle,right,0.421497049999743,1,lose,win,stay,0,circle,triangle,0.5,left
6,165,14,circle,left,0.42186534999928,1,lose,lose,stay,0,circle,triangle,0.5,right
6,166,14,triangle,left,0.604761849999704,0,lose,lose,shift,0,circle,circle,0.5,left
6,167,14,triangle,right,0.42192305000026,0,lose,lose,stay,0,circle,circle,0.5,right
6,168,14,circle,left,0.488589249998768,1,lose,lose,shift,0,circle,triangle,0.5,right
6,169,14,circle,left,0.75549294999837,1,win,lose,stay,0,circle,circle,0.5,right
6,170,14,circle,right,0.388350049999644,1,lose,win,stay,0,circle,triangle,0.5,left
6,171,15,circle,right,0.371235749998959,0,lose,lose,stay,1,triangle,triangle,0.8,left
6,172,15,triangle,right,0.603894550000405,1,win,lose,shift,0,triangle,triangle,0.8,right
6,173,15,triangle,right,0.354968750001717,1,win,win,stay,0,triangle,triangle,0.8,right
6,174,15,triangle,right,0.338559550000355,1,win,win,stay,0,triangle,triangle,0.8,right
6,175,15,triangle,right,0.338251949999176,1,lose,win,stay,0,triangle,circle,0.8,right
6,176,15,circle,left,0.436967349998667,0,lose,lose,shift,0,triangle,triangle,0.8,right
6,177,15,circle,left,0.737674849999166,0,lose,lose,stay,0,triangle,triangle,0.8,right
6,178,15,triangle,left,0.338439449998987,1,win,lose,shift,0,triangle,triangle,0.8,left
6,179,15,triangle,left,0.40507935000096,1,lose,win,stay,0,triangle,circle,0.8,left
6,180,15,circle,left,0.420370750001894,0,lose,lose,shift,0,triangle,triangle,0.8,right
6,181,15,circle,left,0.272066450001148,0,lose,lose,stay,0,triangle,triangle,0.8,right
6,182,15,circle,right,0.33733674999894,0,lose,lose,stay,0,triangle,triangle,0.8,left
6,183,15,circle,right,0.35470555000029,0,lose,lose,stay,0,triangle,triangle,0.8,left
6,184,15,triangle,left,0.638133350003045,1,win,lose,shift,0,triangle,triangle,0.8,left
6,185,15,triangle,right,0.40388504999828,1,win,win,stay,0,triangle,triangle,0.8,right
6,186,15,triangle,left,0.370939450000151,1,lose,win,stay,0,triangle,circle,0.8,left
6,187,16,triangle,left,0.387377450000713,0,lose,lose,stay,1,circle,circle,0.2,left
6,188,16,triangle,left,0.838067849999788,0,lose,lose,stay,0,circle,circle,0.2,left
6,189,16,circle,right,0.404494950000299,1,win,lose,shift,0,circle,circle,0.2,left
6,190,16,circle,right,0.305382349999491,1,win,win,stay,0,circle,circle,0.2,left
6,191,16,circle,left,0.471933050001098,1,win,win,stay,0,circle,circle,0.2,right
6,192,16,circle,left,0.422127150000961,1,lose,win,stay,0,circle,triangle,0.2,right
6,193,16,circle,left,0.33743714999946,1,win,lose,stay,0,circle,circle,0.2,right
6,194,16,circle,left,0.604673550000371,1,lose,win,stay,0,circle,triangle,0.2,right
6,195,16,triangle,left,1.15556395000021,0,win,lose,shift,0,circle,triangle,0.2,left
6,196,16,triangle,right,0.471422750000784,0,lose,win,stay,0,circle,circle,0.2,right
6,197,16,triangle,right,0.504596750000928,0,win,lose,stay,0,circle,triangle,0.2,right
6,198,16,triangle,left,0.437297350001245,0,lose,win,stay,0,circle,circle,0.2,left
6,199,16,triangle,left,0.4378524499989,0,lose,lose,stay,0,circle,circle,0.2,left
6,200,16,circle,left,0.388790349999908,1,win,lose,shift,0,circle,circle,0.2,right
6,201,16,circle,right,0.370931449999262,1,win,win,stay,0,circle,circle,0.2,left
6,202,16,circle,right,0.470494149998558,1,win,win,stay,0,circle,circle,0.2,left
6,203,17,circle,right,0.371737349998511,0,lose,win,stay,1,triangle,triangle,0.5,left
6,204,17,circle,right,0.304843350000738,0,lose,lose,stay,0,triangle,triangle,0.5,left
6,205,17,triangle,right,1.02093215000059,1,lose,lose,shift,0,triangle,circle,0.5,right
6,206,17,triangle,left,0.355460050001057,1,win,lose,stay,0,triangle,triangle,0.5,left
6,207,17,triangle,right,0.621260949999851,1,win,win,stay,0,triangle,triangle,0.5,right
6,208,17,triangle,right,0.338348049999695,1,lose,win,stay,0,triangle,circle,0.5,right
6,209,17,triangle,right,0.353922350001085,1,lose,lose,stay,0,triangle,circle,0.5,right
6,210,17,circle,left,0.438787349999984,0,lose,lose,shift,0,triangle,triangle,0.5,right
6,211,17,circle,right,0.438354850000906,0,lose,lose,stay,0,triangle,triangle,0.5,left
6,212,17,circle,right,0.737770350000574,0,win,lose,stay,0,triangle,circle,0.5,left
6,213,17,circle,left,0.338853950001067,0,win,win,stay,0,triangle,circle,0.5,right
6,214,17,circle,left,0.337378549998903,0,win,win,stay,0,triangle,circle,0.5,right
6,215,17,circle,left,0.421357250001165,0,win,win,stay,0,triangle,circle,0.5,right
6,216,17,circle,right,0.404499950000172,0,lose,win,stay,0,triangle,triangle,0.5,left
6,217,17,circle,right,0.472240449998935,0,win,lose,stay,0,triangle,circle,0.5,left
6,218,17,circle,right,0.388852849999239,0,win,win,stay,0,triangle,circle,0.5,left
6,219,18,circle,left,0.437719450001168,1,lose,win,stay,1,circle,triangle,0.2,right
6,220,18,circle,right,0.42101724999884,1,win,lose,stay,0,circle,circle,0.2,left
6,221,18,circle,left,0.455566949998683,1,win,win,stay,0,circle,circle,0.2,right
6,222,18,circle,right,1.10451255000044,1,win,win,stay,0,circle,circle,0.2,left
6,223,18,circle,right,0.420450550001988,1,lose,win,stay,0,circle,triangle,0.2,left
6,224,18,circle,right,0.603737250001359,1,win,lose,stay,0,circle,circle,0.2,left
6,225,18,circle,left,0.538031250000131,1,win,win,stay,0,circle,circle,0.2,right
6,226,18,circle,left,0.504764449999129,1,win,win,stay,0,circle,circle,0.2,right
6,227,18,circle,left,0.487359950000609,1,win,win,stay,0,circle,circle,0.2,right
6,228,18,circle,right,0.439111050000065,1,win,win,stay,0,circle,circle,0.2,left
6,229,19,circle,left,0.504991050001991,0,lose,win,stay,1,triangle,triangle,0.8,right
6,230,19,circle,right,0.470954549999078,0,lose,lose,stay,0,triangle,triangle,0.8,left
6,231,19,circle,right,0.538273850002952,0,lose,lose,stay,0,triangle,triangle,0.8,left
6,232,19,triangle,right,0.688529049999488,1,win,lose,shift,0,triangle,triangle,0.8,right
6,233,19,triangle,left,0.437227450000137,1,win,win,stay,0,triangle,triangle,0.8,left
6,234,19,triangle,right,0.35513075000199,1,lose,win,stay,0,triangle,circle,0.8,right
6,235,19,triangle,right,0.237354749999213,1,win,lose,stay,0,triangle,triangle,0.8,right
6,236,19,triangle,left,0.386950649999562,1,win,win,stay,0,triangle,triangle,0.8,left
6,237,19,triangle,right,0.387600549998751,1,win,win,stay,0,triangle,triangle,0.8,right
6,238,19,triangle,left,0.43721805000132,1,win,win,stay,0,triangle,triangle,0.8,left
6,239,20,triangle,left,0.321760849999919,0,lose,win,stay,1,circle,circle,0.2,left
6,240,20,triangle,left,0.304843049998453,0,lose,lose,stay,0,circle,circle,0.2,left
6,241,20,circle,right,0.271191649999309,1,win,lose,shift,0,circle,circle,0.2,left
6,242,20,circle,right,0.271366750001107,1,lose,win,stay,0,circle,triangle,0.2,left
6,243,20,circle,right,0.237293450001744,1,win,lose,stay,0,circle,circle,0.2,left
6,244,20,circle,right,0.337117649998618,1,win,win,stay,0,circle,circle,0.2,left
6,245,20,circle,right,0.588444549999622,1,win,win,stay,0,circle,circle,0.2,left
6,246,20,circle,right,0.538281150002149,1,lose,win,stay,0,circle,triangle,0.2,left
6,247,20,circle,right,0.288127449999592,1,win,lose,stay,0,circle,circle,0.2,left
6,248,20,circle,right,0.772188650002136,1,win,win,stay,0,circle,circle,0.2,left
6,249,21,circle,left,0.520610149998902,0,lose,win,stay,1,triangle,triangle,0.5,right
6,250,21,circle,right,0.788977649999651,0,lose,lose,stay,0,triangle,triangle,0.5,left
8,1,1,triangle,left,1.40337931999966,1,win,[],[],1,triangle,triangle,0.8,left
8,2,1,triangle,left,0.853511819999767,1,lose,win,stay,0,triangle,circle,0.8,left
8,3,1,triangle,left,0.904605719999381,1,win,lose,stay,0,triangle,triangle,0.8,left
8,4,1,triangle,right,2.85337841999717,1,win,win,stay,0,triangle,triangle,0.8,right
8,5,1,triangle,left,0.754276319999917,1,win,win,stay,0,triangle,triangle,0.8,left
8,6,1,triangle,left,0.56979192000108,1,win,win,stay,0,triangle,triangle,0.8,left
8,7,1,triangle,left,0.771070220000183,1,win,win,stay,0,triangle,triangle,0.8,left
8,8,1,triangle,right,1.00464112000009,1,win,win,stay,0,triangle,triangle,0.8,right
8,9,1,triangle,right,0.470758920000662,1,lose,win,stay,0,triangle,circle,0.8,right
8,10,1,circle,left,0.621398620000036,0,lose,lose,shift,0,triangle,triangle,0.8,right
8,11,2,circle,left,1.42070442000113,1,win,lose,stay,1,circle,circle,0.19999999999999996,right
8,12,2,circle,right,0.419675119997919,1,lose,win,stay,0,circle,triangle,0.19999999999999996,left
8,13,2,circle,right,0.853217219999351,1,win,lose,stay,0,circle,circle,0.19999999999999996,left
8,14,2,triangle,left,0.371534519998022,0,lose,win,shift,0,circle,circle,0.19999999999999996,left
8,15,2,triangle,left,0.336411419997603,0,lose,lose,stay,0,circle,circle,0.19999999999999996,left
8,16,2,circle,left,0.587407019998864,1,win,lose,shift,0,circle,circle,0.19999999999999996,right
8,17,2,circle,left,0.404822919999788,1,win,win,stay,0,circle,circle,0.19999999999999996,right
8,18,2,circle,right,0.503834819997792,1,win,win,stay,0,circle,circle,0.19999999999999996,left
8,19,2,circle,left,0.654024319999735,1,lose,win,stay,0,circle,triangle,0.19999999999999996,right
8,20,2,triangle,left,0.337928719998672,0,lose,lose,shift,0,circle,circle,0.19999999999999996,left
8,21,3,circle,left,1.6869898199966,0,win,lose,shift,1,triangle,circle,0.5,right
8,22,3,circle,left,0.503910619998351,0,lose,win,stay,0,triangle,triangle,0.5,right
8,23,3,triangle,left,0.803072319999046,1,win,lose,shift,0,triangle,triangle,0.5,left
8,24,3,triangle,left,0.454203119998056,1,win,win,stay,0,triangle,triangle,0.5,left
8,25,3,triangle,right,1.28654101999746,1,win,win,stay,0,triangle,triangle,0.5,right
8,26,3,triangle,left,0.3872054200001,1,win,win,stay,0,triangle,triangle,0.5,left
8,27,3,triangle,right,0.587254820000453,1,win,win,stay,0,triangle,triangle,0.5,right
8,28,3,triangle,left,0.505021319999287,1,win,win,stay,0,triangle,triangle,0.5,left
8,29,3,triangle,left,0.537581219998174,1,lose,win,stay,0,triangle,circle,0.5,left
8,30,3,circle,left,0.470137820000673,0,win,lose,shift,0,triangle,circle,0.5,right
8,31,4,circle,right,0.571661919999315,1,lose,win,stay,1,circle,triangle,0.19999999999999996,left
8,32,4,circle,left,0.304227119999268,1,win,lose,stay,0,circle,circle,0.19999999999999996,right
8,33,4,circle,left,0.421634519998406,1,win,win,stay,0,circle,circle,0.19999999999999996,right
8,34,4,circle,left,0.321316919998935,1,win,win,stay,0,circle,circle,0.19999999999999996,right
8,35,4,circle,left,0.321679219998259,1,win,win,stay,0,circle,circle,0.19999999999999996,right
8,36,4,triangle,left,1.08761341999889,0,lose,win,shift,0,circle,circle,0.19999999999999996,left
8,37,4,triangle,left,0.270507119998001,0,lose,lose,stay,0,circle,circle,0.19999999999999996,left
8,38,4,circle,right,0.270221419999871,1,win,lose,shift,0,circle,circle,0.19999999999999996,left
8,39,4,circle,left,0.354035719998137,1,win,win,stay,0,circle,circle,0.19999999999999996,right
8,40,4,circle,right,0.354552419999891,1,lose,win,stay,0,circle,triangle,0.19999999999999996,left
8,41,5,circle,right,0.302820319999228,0,lose,lose,stay,1,triangle,triangle,0.8,left
8,42,5,triangle,left,0.987074519998714,1,win,lose,shift,0,triangle,triangle,0.8,left
8,43,5,triangle,right,0.919856519998575,1,lose,win,stay,0,triangle,circle,0.8,right
8,44,5,triangle,left,1.08643212000061,1,lose,lose,stay,0,triangle,circle,0.8,left
8,45,5,circle,left,0.354248419998839,0,win,lose,shift,0,triangle,circle,0.8,right
8,46,5,circle,right,0.770646619999752,0,lose,win,stay,0,triangle,triangle,0.8,left
8,47,5,circle,left,0.787873420000324,0,lose,lose,stay,0,triangle,triangle,0.8,right
8,48,5,circle,right,1.45417721999911,0,lose,lose,stay,0,triangle,triangle,0.8,left
8,49,5,circle,left,0.421287119999761,0,lose,lose,stay,0,triangle,triangle,0.8,right
8,50,5,triangle,left,0.354711619998852,1,win,lose,shift,0,triangle,triangle,0.8,left
8,51,5,triangle,right,0.421147219998602,1,win,win,stay,0,triangle,triangle,0.8,right
8,52,5,triangle,right,0.404766619998554,1,lose,win,stay,0,triangle,circle,0.8,right
8,53,5,triangle,left,0.619875920001505,1,win,lose,stay,0,triangle,triangle,0.8,left
8,54,5,triangle,right,0.387346619998425,1,win,win,stay,0,triangle,triangle,0.8,right
8,55,5,triangle,left,0.336531219998506,1,win,win,stay,0,triangle,triangle,0.8,left
8,56,5,triangle,right,0.386688519998643,1,win,win,stay,0,triangle,triangle,0.8,right
8,57,6,triangle,right,0.538283719999527,0,lose,win,stay,1,circle,circle,0.19999999999999996,right
8,58,6,circle,right,0.37011111999891,1,win,lose,shift,0,circle,circle,0.19999999999999996,left
8,59,6,circle,right,0.671458519997032,1,win,win,stay,0,circle,circle,0.19999999999999996,left
8,60,6,circle,right,0.420584219999,1,win,win,stay,0,circle,circle,0.19999999999999996,left
8,61,6,circle,right,0.437897019999582,1,win,win,stay,0,circle,circle,0.19999999999999996,left
8,62,6,circle,left,0.437994919997436,1,win,win,stay,0,circle,circle,0.19999999999999996,right
8,63,6,circle,left,0.387811220000003,1,win,win,stay,0,circle,circle,0.19999999999999996,right
8,64,6,circle,left,0.4206184199993,1,win,win,stay,0,circle,circle,0.19999999999999996,right
8,65,6,circle,right,0.736746619999394,1,win,win,stay,0,circle,circle,0.19999999999999996,left
8,66,6,circle,left,0.37144472,1,lose,win,stay,0,circle,triangle,0.19999999999999996,right
8,67,7,triangle,right,0.386824819997855,1,lose,lose,shift,1,triangle,circle,0.5,right
8,68,7,circle,right,0.60507632000008,0,win,lose,shift,0,triangle,circle,0.5,left
8,69,7,circle,right,0.503811919998043,0,win,win,stay,0,triangle,circle,0.5,left
8,70,7,circle,right,0.403280719998293,0,lose,win,stay,0,triangle,triangle,0.5,left
8,71,7,circle,left,1.08709931999692,0,lose,lose,stay,0,triangle,triangle,0.5,right
8,72,7,triangle,left,0.320243819998723,1,win,lose,shift,0,triangle,triangle,0.5,left
8,73,7,triangle,left,0.354455219998272,1,win,win,stay,0,triangle,triangle,0.5,left
8,74,7,triangle,right,0.371539919997304,1,win,win,stay,0,triangle,triangle,0.5,right
8,75,7,triangle,left,0.354491919999418,1,lose,win,stay,0,triangle,circle,0.5,left
8,76,7,circle,left,0.671158419998392,0,win,lose,shift,0,triangle,circle,0.5,right
8,77,7,circle,left,0.387886719998278,0,win,win,stay,0,triangle,circle,0.5,right
8,78,7,circle,left,0.703742419998889,0,lose,win,stay,0,triangle,triangle,0.5,right
8,79,7,circle,left,1.27115052000045,0,win,lose,stay,0,triangle,circle,0.5,right
8,80,7,circle,left,0.370456819999163,0,lose,win,stay,0,triangle,triangle,0.5,right
8,81,7,circle,right,0.53651931999957,0,win,lose,stay,0,triangle,circle,0.5,left
8,82,7,circle,right,0.954459419999694,0,win,win,stay,0,triangle,circle,0.5,left
8,83,8,circle,left,0.919895420000103,0,lose,win,stay,1,triangle,triangle,0.8,right
8,84,8,circle,right,0.654408119999061,0,lose,lose,stay,0,triangle,triangle,0.8,left
8,85,8,circle,right,0.737872019997667,0,win,lose,stay,0,triangle,circle,0.8,left
8,86,8,circle,left,0.521199619999607,0,lose,win,stay,0,triangle,triangle,0.8,right
8,87,8,triangle,right,0.37124761999803,1,win,lose,shift,0,triangle,triangle,0.8,right
8,88,8,triangle,right,0.33826831999977,1,win,win,stay,0,triangle,triangle,0.8,right
8,89,8,triangle,right,0.437426119999145,1,win,win,stay,0,triangle,triangle,0.8,right
8,90,8,triangle,right,0.369327720000001,1,win,win,stay,0,triangle,triangle,0.8,right
8,91,8,triangle,right,0.304560119997404,1,win,win,stay,0,triangle,triangle,0.8,right
8,92,8,triangle,left,0.454972119998274,1,lose,win,stay,0,triangle,circle,0.8,left
8,93,8,circle,left,0.604983119999815,0,lose,lose,shift,0,triangle,triangle,0.8,right
8,94,8,triangle,right,0.454734319997442,1,win,lose,shift,0,triangle,triangle,0.8,right
8,95,9,triangle,left,1.42000361999999,0,lose,win,stay,1,circle,circle,0.19999999999999996,left
8,96,9,triangle,right,0.68800641999951,0,lose,lose,stay,0,circle,circle,0.19999999999999996,right
8,97,9,circle,left,0.337424519997512,1,lose,lose,shift,0,circle,triangle,0.19999999999999996,right
8,98,9,triangle,left,0.370229719997951,0,lose,lose,shift,0,circle,circle,0.19999999999999996,left
8,99,9,circle,right,0.336523320000197,1,win,lose,shift,0,circle,circle,0.19999999999999996,left
8,100,9,circle,left,0.287687519999963,1,win,win,stay,0,circle,circle,0.19999999999999996,right
8,101,9,circle,right,0.303809619999811,1,win,win,stay,0,circle,circle,0.19999999999999996,left
8,102,9,circle,right,0.553634319998309,1,win,win,stay,0,circle,circle,0.19999999999999996,left
8,103,9,circle,left,0.903395019997333,1,win,win,stay,0,circle,circle,0.19999999999999996,right
8,104,9,circle,left,1.36965111999962,1,win,win,stay,0,circle,circle,0.19999999999999996,right
8,105,10,circle,right,0.519628419997389,0,lose,win,stay,1,triangle,triangle,0.8,left
8,106,10,triangle,right,0.436089319999155,1,win,lose,shift,0,triangle,triangle,0.8,right
8,107,10,triangle,left,0.303497320001043,1,win,win,stay,0,triangle,triangle,0.8,left
8,108,10,triangle,left,0.371329919998971,1,win,win,stay,0,triangle,triangle,0.8,left
8,109,10,triangle,right,0.586492320000616,1,win,win,stay,0,triangle,triangle,0.8,right
8,110,10,triangle,left,0.403909619999467,1,win,win,stay,0,triangle,triangle,0.8,left
8,111,10,triangle,left,0.437904319998779,1,win,win,stay,0,triangle,triangle,0.8,left
8,112,10,triangle,left,0.371001919998889,1,lose,win,stay,0,triangle,circle,0.8,left
8,113,10,circle,right,0.403253919997951,0,lose,lose,shift,0,triangle,triangle,0.8,left
8,114,10,circle,left,1.52039161999892,0,win,lose,stay,0,triangle,circle,0.8,right
8,115,11,circle,right,0.386332320000292,1,lose,win,stay,1,circle,triangle,0.5,left
8,116,11,triangle,left,0.220513419999406,0,lose,lose,shift,0,circle,circle,0.5,left
8,117,11,circle,right,0.487223919997632,1,lose,lose,shift,0,circle,triangle,0.5,left
8,118,11,circle,right,0.387086719998479,1,win,lose,stay,0,circle,circle,0.5,left
8,119,11,circle,left,0.754312520000894,1,win,win,stay,0,circle,circle,0.5,right
8,120,11,circle,left,0.421150419999321,1,win,win,stay,0,circle,circle,0.5,right
8,121,11,circle,right,0.587732219999452,1,win,win,stay,0,circle,circle,0.5,left
8,122,11,circle,left,0.321437019998484,1,win,win,stay,0,circle,circle,0.5,right
8,123,11,circle,left,0.40408811999805,1,lose,win,stay,0,circle,triangle,0.5,right
8,124,11,circle,right,0.438021519999893,1,lose,lose,stay,0,circle,triangle,0.5,left
8,125,12,triangle,left,0.321534520000569,1,win,lose,shift,1,triangle,triangle,0.8,left
8,126,12,triangle,right,0.371379319998596,1,lose,win,stay,0,triangle,circle,0.8,right
8,127,12,triangle,right,0.404267519999848,1,win,lose,stay,0,triangle,triangle,0.8,right
8,128,12,triangle,right,0.538019919997168,1,win,win,stay,0,triangle,triangle,0.8,right
8,129,12,triangle,left,0.371499519998906,1,win,win,stay,0,triangle,triangle,0.8,left
8,130,12,triangle,left,0.403471019999415,1,win,win,stay,0,triangle,triangle,0.8,left
8,131,12,triangle,right,0.404711019997194,1,win,win,stay,0,triangle,triangle,0.8,right
8,132,12,triangle,left,0.371043419998387,1,win,win,stay,0,triangle,triangle,0.8,left
8,133,12,triangle,right,0.52082381999935,1,win,win,stay,0,triangle,triangle,0.8,right
8,134,12,triangle,left,0.32135351999932,1,win,win,stay,0,triangle,triangle,0.8,left
8,135,13,circle,right,0.453090319999319,1,lose,win,shift,1,circle,triangle,0.19999999999999996,left
8,136,13,triangle,right,0.320673819998774,0,win,lose,shift,0,circle,triangle,0.19999999999999996,right
8,137,13,triangle,left,0.370255219997489,0,lose,win,stay,0,circle,circle,0.19999999999999996,left
8,138,13,circle,left,0.371734120000838,1,win,lose,shift,0,circle,circle,0.19999999999999996,right
8,139,13,circle,right,0.33787571999892,1,lose,win,stay,0,circle,triangle,0.19999999999999996,left
8,140,13,circle,left,0.303526319998127,1,lose,lose,stay,0,circle,triangle,0.19999999999999996,right
8,141,13,triangle,left,0.687971620000098,0,lose,lose,shift,0,circle,circle,0.19999999999999996,left
8,142,13,circle,left,0.336937119998765,1,win,lose,shift,0,circle,circle,0.19999999999999996,right
8,143,13,circle,left,0.421389219998673,1,win,win,stay,0,circle,circle,0.19999999999999996,right
8,144,13,circle,left,0.33796011999948,1,win,win,stay,0,circle,circle,0.19999999999999996,right
8,145,14,circle,left,0.321119419999377,0,win,win,stay,1,triangle,circle,0.5,right
8,146,14,circle,right,0.504196819998469,0,win,win,stay,0,triangle,circle,0.5,left
8,147,14,circle,left,0.30350611999711,0,lose,win,stay,0,triangle,triangle,0.5,right
8,148,14,triangle,left,0.353626919999442,1,win,lose,shift,0,triangle,triangle,0.5,left
8,149,14,triangle,left,0.85389591999774,1,lose,win,stay,0,triangle,circle,0.5,left
8,150,14,circle,right,0.336545219997788,0,win,lose,shift,0,triangle,circle,0.5,left
8,151,14,circle,right,0.387216619998071,0,win,win,stay,0,triangle,circle,0.5,left
8,152,14,circle,left,0.319923719998769,0,win,win,stay,0,triangle,circle,0.5,right
8,153,14,circle,left,0.436943320000864,0,lose,win,stay,0,triangle,triangle,0.5,right
8,154,14,circle,right,0.403529119999803,0,lose,lose,stay,0,triangle,triangle,0.5,left
8,155,14,triangle,left,0.288137719999213,1,lose,lose,shift,0,triangle,circle,0.5,left
8,156,14,circle,left,0.336744019999969,0,win,lose,shift,0,triangle,circle,0.5,right
8,157,14,circle,right,0.40398771999935,0,win,win,stay,0,triangle,circle,0.5,left
8,158,14,circle,right,0.336852520000321,0,lose,win,stay,0,triangle,triangle,0.5,left
8,159,14,circle,right,0.404485920000297,0,lose,lose,stay,0,triangle,triangle,0.5,left
8,160,14,triangle,left,0.320693319999918,1,win,lose,shift,0,triangle,triangle,0.5,left
8,161,15,triangle,left,0.355107319997842,0,lose,win,stay,1,circle,circle,0.19999999999999996,left
8,162,15,triangle,left,0.338013319998936,0,lose,lose,stay,0,circle,circle,0.19999999999999996,left
8,163,15,circle,left,0.437713319999602,1,lose,lose,shift,0,circle,triangle,0.19999999999999996,right
8,164,15,triangle,left,0.987887119998049,0,lose,lose,shift,0,circle,circle,0.19999999999999996,left
8,165,15,triangle,right,0.820377420001023,0,lose,lose,stay,0,circle,circle,0.19999999999999996,right
8,166,15,triangle,left,0.487439419997827,0,lose,lose,stay,0,circle,circle,0.19999999999999996,left
8,167,15,circle,right,0.403701319999527,1,win,lose,shift,0,circle,circle,0.19999999999999996,left
8,168,15,circle,right,0.353499019998708,1,win,win,stay,0,circle,circle,0.19999999999999996,left
8,169,15,circle,right,0.33793021999918,1,win,win,stay,0,circle,circle,0.19999999999999996,left
8,170,15,circle,left,0.687037820000114,1,lose,win,stay,0,circle,triangle,0.19999999999999996,right
8,171,15,circle,right,0.271349220000047,1,win,lose,stay,0,circle,circle,0.19999999999999996,left
8,172,15,triangle,right,0.25343041999804,0,lose,win,shift,0,circle,circle,0.19999999999999996,right
8,173,15,circle,left,0.504919720002363,1,win,lose,shift,0,circle,circle,0.19999999999999996,right
8,174,15,circle,left,0.319373219999761,1,win,win,stay,0,circle,circle,0.19999999999999996,right
8,175,16,circle,right,0.471140319999904,0,lose,win,stay,1,triangle,triangle,0.8,left
8,176,16,circle,left,0.337119019997772,0,lose,lose,stay,0,triangle,triangle,0.8,right
8,177,16,triangle,left,0.386864819998664,1,win,lose,shift,0,triangle,triangle,0.8,left
8,178,16,triangle,left,0.403973519998544,1,win,win,stay,0,triangle,triangle,0.8,left
8,179,16,triangle,right,0.570523919999687,1,win,win,stay,0,triangle,triangle,0.8,right
8,180,16,triangle,right,0.436527719999503,1,win,win,stay,0,triangle,triangle,0.8,right
8,181,16,triangle,right,1.07148031999895,1,win,win,stay,0,triangle,triangle,0.8,right
8,182,16,triangle,left,0.621363419999398,1,win,win,stay,0,triangle,triangle,0.8,left
8,183,16,triangle,left,0.553064219997395,1,win,win,stay,0,triangle,triangle,0.8,left
8,184,16,triangle,right,0.371306319999348,1,win,win,stay,0,triangle,triangle,0.8,right
8,185,17,triangle,left,0.436499619998358,0,lose,win,stay,1,circle,circle,0.5,left
8,186,17,circle,right,1.03739691999908,1,lose,lose,shift,0,circle,triangle,0.5,left
8,187,17,triangle,right,0.319977819999622,0,win,lose,shift,0,circle,triangle,0.5,right
8,188,17,triangle,left,0.686629719997654,0,lose,win,stay,0,circle,circle,0.5,left
8,189,17,circle,left,0.470414719997279,1,win,lose,shift,0,circle,circle,0.5,right
8,190,17,circle,left,0.453492219998225,1,win,win,stay,0,circle,circle,0.5,right
8,191,17,circle,right,0.371344520001003,1,lose,win,stay,0,circle,triangle,0.5,left
8,192,17,circle,left,0.438285219999671,1,lose,lose,stay,0,circle,triangle,0.5,right
8,193,17,triangle,left,0.321056519997001,0,win,lose,shift,0,circle,triangle,0.5,left
8,194,17,triangle,right,0.304431919999843,0,win,win,stay,0,circle,triangle,0.5,right
8,195,17,triangle,left,0.454507619999276,0,win,win,stay,0,circle,triangle,0.5,left
8,196,17,triangle,left,0.887527920000139,0,win,win,stay,0,circle,triangle,0.5,left
8,197,17,triangle,right,0.420737820000795,0,win,win,stay,0,circle,triangle,0.5,right
8,198,17,triangle,right,0.40307651999683,0,win,win,stay,0,circle,triangle,0.5,right
8,199,17,triangle,right,0.487182219998431,0,lose,win,stay,0,circle,circle,0.5,right
8,200,17,circle,left,0.437440419998893,1,lose,lose,shift,0,circle,triangle,0.5,right
8,201,18,triangle,right,0.50360671999988,1,lose,lose,shift,1,triangle,circle,0.8,right
8,202,18,triangle,right,0.319782119999218,1,lose,lose,stay,0,triangle,circle,0.8,right
8,203,18,triangle,left,0.871463720000975,1,win,lose,stay,0,triangle,triangle,0.8,left
8,204,18,triangle,right,0.337341319998814,1,win,win,stay,0,triangle,triangle,0.8,right
8,205,18,triangle,left,0.63653782000074,1,win,win,stay,0,triangle,triangle,0.8,left
8,206,18,triangle,left,0.870506819999719,1,lose,win,stay,0,triangle,circle,0.8,left
8,207,18,circle,right,0.471098519999941,0,lose,lose,shift,0,triangle,triangle,0.8,left
8,208,18,triangle,right,0.403325019999102,1,lose,lose,shift,0,triangle,circle,0.8,right
8,209,18,circle,right,0.320070919999125,0,win,lose,shift,0,triangle,circle,0.8,left
8,210,18,triangle,right,0.370281420000538,1,lose,win,shift,0,triangle,circle,0.8,right
8,211,19,circle,right,0.721528019999823,1,win,lose,shift,1,circle,circle,0.19999999999999996,left
8,212,19,circle,right,0.487377819999892,1,win,win,stay,0,circle,circle,0.19999999999999996,left
8,213,19,circle,right,0.53833252000004,1,win,win,stay,0,circle,circle,0.19999999999999996,left
8,214,19,circle,left,0.720402319999266,1,win,win,stay,0,circle,circle,0.19999999999999996,right
8,215,19,circle,right,0.503707719997692,1,win,win,stay,0,circle,circle,0.19999999999999996,left
8,216,19,circle,right,0.488227219999317,1,win,win,stay,0,circle,circle,0.19999999999999996,left
8,217,19,circle,left,0.503105920000962,1,win,win,stay,0,circle,circle,0.19999999999999996,right
8,218,19,circle,left,0.87019392000002,1,win,win,stay,0,circle,circle,0.19999999999999996,right
8,219,19,circle,right,0.95432941999934,1,win,win,stay,0,circle,circle,0.19999999999999996,left
8,220,19,circle,left,0.520655119998992,1,win,win,stay,0,circle,circle,0.19999999999999996,right
8,221,20,circle,right,0.570341119999284,0,win,win,stay,1,triangle,circle,0.8,left
8,222,20,circle,left,0.286593019998691,0,win,win,stay,0,triangle,circle,0.8,right
8,223,20,circle,left,0.420871619999161,0,lose,win,stay,0,triangle,triangle,0.8,right
8,224,20,triangle,right,0.419694019998133,1,lose,lose,shift,0,triangle,circle,0.8,right
8,225,20,circle,left,0.420000719997915,0,win,lose,shift,0,triangle,circle,0.8,right
8,226,20,circle,left,0.353499419998116,0,lose,win,stay,0,triangle,triangle,0.8,right
8,227,20,triangle,left,0.853135919998749,1,win,lose,shift,0,triangle,triangle,0.8,left
8,228,20,triangle,left,0.438188619998982,1,win,win,stay,0,triangle,triangle,0.8,left
8,229,20,triangle,right,0.337942719999774,1,win,win,stay,0,triangle,triangle,0.8,right
8,230,20,triangle,right,0.387665519998336,1,win,win,stay,0,triangle,triangle,0.8,right
8,231,20,triangle,right,0.387174020001112,1,lose,win,stay,0,triangle,circle,0.8,right
8,232,20,circle,left,0.32017531999918,0,lose,lose,shift,0,triangle,triangle,0.8,right
8,233,20,circle,left,0.319785420000699,0,win,lose,stay,0,triangle,circle,0.8,right
8,234,20,triangle,right,1.28797952000059,1,win,win,shift,0,triangle,triangle,0.8,right
8,235,20,triangle,right,0.386870219997945,1,win,win,stay,0,triangle,triangle,0.8,right
8,236,21,triangle,left,0.688151820000712,0,win,win,stay,1,circle,triangle,0.5,left
8,237,21,triangle,left,0.553653119999581,0,lose,win,stay,0,circle,circle,0.5,left
8,238,21,circle,right,0.48650711999835,1,win,lose,shift,0,circle,circle,0.5,left
8,239,21,triangle,right,0.370358919999489,0,lose,win,shift,0,circle,circle,0.5,right
8,240,21,circle,left,0.421627519996036,1,lose,lose,shift,0,circle,triangle,0.5,right
8,241,21,triangle,right,0.286803520000831,0,lose,lose,shift,0,circle,circle,0.5,right
8,242,21,circle,left,0.337173619996975,1,lose,lose,shift,0,circle,triangle,0.5,right
8,243,21,triangle,right,0.270458819999476,0,lose,lose,shift,0,circle,circle,0.5,right
8,244,21,triangle,left,0.303165420002188,0,win,lose,stay,0,circle,triangle,0.5,left
8,245,21,triangle,right,0.420692919999055,0,lose,win,stay,0,circle,circle,0.5,right
8,246,21,circle,left,0.28671421999934,1,lose,lose,shift,0,circle,triangle,0.5,right
8,247,21,triangle,right,0.687512819999029,0,win,lose,shift,0,circle,triangle,0.5,right
8,248,21,triangle,right,0.487672719998955,0,win,win,stay,0,circle,triangle,0.5,right
8,249,21,triangle,left,0.63816192000013,0,lose,win,stay,0,circle,circle,0.5,left
8,250,21,triangle,right,0.420333619998928,0,win,lose,stay,0,circle,triangle,0.5,right
9,1,1,triangle,left,4.403373219998684,0,lose,[],[],1,circle,circle,0.2,left
9,2,1,triangle,left,2.855499220000638,0,lose,lose,stay,0,circle,circle,0.2,left
9,3,1,circle,left,3.205238919999829,1,win,lose,shift,0,circle,circle,0.2,right
9,4,1,circle,left,2.0046345200025826,1,win,win,stay,0,circle,circle,0.2,right
9,5,1,circle,left,1.570670519999112,1,win,win,stay,0,circle,circle,0.2,right
9,6,1,circle,left,1.5871888199999376,1,win,win,stay,0,circle,circle,0.2,right
9,7,1,circle,right,0.7380923199998506,1,win,win,stay,0,circle,circle,0.2,left
9,8,1,circle,left,0.6205233200016664,1,lose,win,stay,0,circle,triangle,0.2,right
9,9,1,circle,left,0.6384879200013529,1,win,lose,stay,0,circle,circle,0.2,right
9,10,1,circle,left,0.5715634199987107,1,win,win,stay,0,circle,circle,0.2,right
9,11,2,circle,left,0.8545452200014552,0,lose,win,stay,1,triangle,triangle,0.8,right
9,12,2,circle,left,0.5054475200013258,0,lose,lose,stay,0,triangle,triangle,0.8,right
9,13,2,circle,left,2.2212180200003786,0,lose,lose,stay,0,triangle,triangle,0.8,right
9,14,2,circle,right,1.6206545200002438,0,win,lose,stay,0,triangle,circle,0.8,left
9,15,2,circle,right,0.470602820001659,0,lose,win,stay,0,triangle,triangle,0.8,left
9,16,2,circle,right,2.054144820000147,0,lose,lose,stay,0,triangle,triangle,0.8,left
9,17,2,circle,left,0.7713695200000075,0,lose,lose,stay,0,triangle,triangle,0.8,right
9,18,2,circle,left,0.5721151200013992,0,lose,lose,stay,0,triangle,triangle,0.8,right
9,19,2,triangle,left,4.154243320001115,1,win,lose,shift,0,triangle,triangle,0.8,left
9,20,2,triangle,left,1.2553511200021603,1,win,win,stay,0,triangle,triangle,0.8,left
9,21,2,triangle,left,1.337167320001754,1,win,win,stay,0,triangle,triangle,0.8,left
9,22,2,circle,left,1.7046904199996789,0,lose,win,shift,0,triangle,triangle,0.8,right
9,23,2,circle,right,0.8378289200009021,0,win,lose,stay,0,triangle,circle,0.8,left
9,24,2,triangle,right,0.7539436200022465,1,win,win,shift,0,triangle,triangle,0.8,right
9,25,2,triangle,right,1.2051007200007007,1,win,win,stay,0,triangle,triangle,0.8,right
9,26,2,circle,right,1.0044831199993496,0,lose,win,shift,0,triangle,triangle,0.8,left
9,27,3,circle,left,1.82097001999864,1,lose,lose,stay,1,circle,triangle,0.5,right
9,28,3,circle,left,2.3371004200016614,1,lose,lose,stay,0,circle,triangle,0.5,right
9,29,3,circle,left,4.120806619999712,1,win,lose,stay,0,circle,circle,0.5,right
9,30,3,circle,left,1.0044066200007364,1,win,win,stay,0,circle,circle,0.5,right
9,31,3,triangle,left,1.003897219999999,0,lose,win,shift,0,circle,circle,0.5,left
9,32,3,circle,right,0.8047937199989974,1,lose,lose,shift,0,circle,triangle,0.5,left
9,33,3,triangle,right,1.0047484200022154,0,win,lose,shift,0,circle,triangle,0.5,right
9,34,3,triangle,right,0.7545855200005462,0,lose,win,stay,0,circle,circle,0.5,right
9,35,3,triangle,right,0.7715611200001149,0,win,lose,stay,0,circle,triangle,0.5,right
9,36,3,triangle,right,1.9052385199993296,0,win,win,stay,0,circle,triangle,0.5,right
9,37,3,triangle,right,0.7223983200001385,0,lose,win,stay,0,circle,circle,0.5,right
9,38,3,circle,right,1.0546467200019833,1,lose,lose,shift,0,circle,triangle,0.5,left
9,39,3,circle,left,2.7211944200025755,1,lose,lose,stay,0,circle,triangle,0.5,right
9,40,3,circle,left,0.6882726200001343,1,lose,lose,stay,0,circle,triangle,0.5,right
9,41,3,triangle,left,1.2880340200008504,0,lose,lose,shift,0,circle,circle,0.5,left
9,42,3,circle,left,0.9389405199999601,1,lose,lose,shift,0,circle,triangle,0.5,right
9,43,4,circle,left,0.6537498200013943,0,lose,lose,stay,1,triangle,triangle,0.8,right
9,44,4,circle,left,1.204155819999869,0,lose,lose,stay,0,triangle,triangle,0.8,right
9,45,4,triangle,left,1.720070420000411,1,win,lose,shift,0,triangle,triangle,0.8,left
9,46,4,triangle,left,0.9218693200000416,1,win,win,stay,0,triangle,triangle,0.8,left
9,47,4,circle,left,1.2872488200009684,0,win,win,shift,0,triangle,circle,0.8,right
9,48,4,circle,right,0.7214970199984236,0,lose,win,stay,0,triangle,triangle,0.8,left
9,49,4,circle,right,0.554846519999046,0,lose,lose,stay,0,triangle,triangle,0.8,left
9,50,4,triangle,right,2.420733120001387,1,win,lose,shift,0,triangle,triangle,0.8,right
9,51,4,circle,right,0.6384530200011795,0,lose,win,shift,0,triangle,triangle,0.8,left
9,52,4,circle,right,1.1554597200010903,0,lose,lose,stay,0,triangle,triangle,0.8,left
9,53,4,circle,left,0.42145542000071146,0,lose,lose,stay,0,triangle,triangle,0.8,right
9,54,4,triangle,left,0.9388192200003687,1,win,lose,shift,0,triangle,triangle,0.8,left
9,55,4,circle,left,1.2706795200010674,0,lose,win,shift,0,triangle,triangle,0.8,right
9,56,4,circle,left,2.8705187200012006,0,lose,lose,stay,0,triangle,triangle,0.8,right
9,57,4,triangle,left,2.6550542200020573,1,win,lose,shift,0,triangle,triangle,0.8,left
9,58,4,circle,left,1.5220050200005062,0,lose,win,shift,0,triangle,triangle,0.8,right
9,59,5,triangle,right,2.404974120001498,0,lose,lose,shift,1,circle,circle,0.2,right
9,60,5,triangle,left,0.8714571199998318,0,lose,lose,stay,0,circle,circle,0.2,left
9,61,5,triangle,left,0.9215729200004716,0,lose,lose,stay,0,circle,circle,0.2,left
9,62,5,triangle,left,1.6873038200028532,0,lose,lose,stay,0,circle,circle,0.2,left
9,63,5,triangle,left,3.0539365200020256,0,lose,lose,stay,0,circle,circle,0.2,left
9,64,5,circle,left,2.605471819999366,1,win,lose,shift,0,circle,circle,0.2,right
9,65,5,circle,left,0.7884396200024639,1,win,win,stay,0,circle,circle,0.2,right
9,66,5,triangle,left,2.8543304200011335,0,lose,win,shift,0,circle,circle,0.2,left
9,67,5,circle,right,1.037464920000275,1,win,lose,shift,0,circle,circle,0.2,left
9,68,5,circle,left,0.872074220000286,1,win,win,stay,0,circle,circle,0.2,right
9,69,5,circle,right,1.004179520003163,1,win,win,stay,0,circle,circle,0.2,left
9,70,5,circle,right,0.9390092200010258,1,lose,win,stay,0,circle,triangle,0.2,left
9,71,5,circle,right,0.7039248199998838,1,win,lose,stay,0,circle,circle,0.2,left
9,72,6,circle,left,0.9880801200015412,0,lose,win,stay,1,triangle,triangle,0.8,right
9,73,6,circle,right,0.6052343200008181,0,win,lose,stay,0,triangle,circle,0.8,left
9,74,6,circle,right,0.6544075199999497,0,lose,win,stay,0,triangle,triangle,0.8,left
9,75,6,circle,left,1.4048742200011475,0,lose,lose,stay,0,triangle,triangle,0.8,right
9,76,6,circle,left,1.205076320002263,0,lose,lose,stay,0,triangle,triangle,0.8,right
9,77,6,circle,right,0.6206539199993131,0,lose,lose,stay,0,triangle,triangle,0.8,left
9,78,6,circle,right,0.5717401200017775,0,win,lose,stay,0,triangle,circle,0.8,left
9,79,6,circle,right,0.7539667199998803,0,win,win,stay,0,triangle,circle,0.8,left
9,80,6,triangle,left,3.187526620002245,1,win,win,shift,0,triangle,triangle,0.8,left
9,81,6,triangle,left,2.4873454200005654,1,win,win,stay,0,triangle,triangle,0.8,left
9,82,6,circle,left,1.3884039200002007,0,lose,win,shift,0,triangle,triangle,0.8,right
9,83,6,circle,left,1.4055022199991072,0,lose,lose,stay,0,triangle,triangle,0.8,right
9,84,6,triangle,left,1.688685520002764,1,lose,lose,shift,0,triangle,circle,0.8,left
9,85,6,circle,left,0.7712214200000744,0,lose,lose,shift,0,triangle,triangle,0.8,right
9,86,6,triangle,left,3.5202872200006823,1,win,lose,shift,0,triangle,triangle,0.8,left
9,87,6,triangle,right,0.9214184199990996,1,win,win,stay,0,triangle,triangle,0.8,right
9,88,7,triangle,left,0.7052486199991108,0,win,win,stay,1,circle,triangle,0.5,left
9,89,7,triangle,right,1.0884881199999654,0,lose,win,stay,0,circle,circle,0.5,right
9,90,7,triangle,left,2.553668420001486,0,win,lose,stay,0,circle,triangle,0.5,left
9,91,7,circle,right,2.570502819999092,1,win,win,shift,0,circle,circle,0.5,left
9,92,7,circle,left,2.2383638199989946,1,lose,win,stay,0,circle,triangle,0.5,right
9,93,7,circle,left,1.4544656200014288,1,lose,lose,stay,0,circle,triangle,0.5,right
9,94,7,triangle,left,1.9707655199999863,0,win,lose,shift,0,circle,triangle,0.5,left
9,95,7,triangle,right,1.5543203200031712,0,win,win,stay,0,circle,triangle,0.5,right
9,96,7,triangle,left,0.8550500199999078,0,lose,win,stay,0,circle,circle,0.5,left
9,97,7,circle,left,1.7544893200010847,1,win,lose,shift,0,circle,circle,0.5,right
9,98,7,circle,left,1.4046635200011224,1,win,win,stay,0,circle,circle,0.5,right
9,99,7,triangle,right,1.6379704200007836,0,win,win,shift,0,circle,triangle,0.5,right
9,100,7,triangle,right,1.7218740199987224,0,lose,win,stay,0,circle,circle,0.5,right
9,101,7,triangle,right,1.438124220001555,0,lose,lose,stay,0,circle,circle,0.5,right
9,102,7,triangle,right,0.8552808200001891,0,win,lose,stay,0,circle,triangle,0.5,right
9,103,7,triangle,right,1.204536619999999,0,win,win,stay,0,circle,triangle,0.5,right
9,104,8,circle,right,2.305176220001158,1,lose,win,shift,1,circle,triangle,0.2,left
9,105,8,circle,left,0.8723762200024794,1,win,lose,stay,0,circle,circle,0.2,right
9,106,8,triangle,left,3.670786920001774,0,lose,win,shift,0,circle,circle,0.2,left
9,107,8,circle,left,1.6548376200025814,1,lose,lose,shift,0,circle,triangle,0.2,right
9,108,8,triangle,right,0.6874464200009243,0,lose,lose,shift,0,circle,circle,0.2,right
9,109,8,triangle,right,0.5036644200008595,0,lose,lose,stay,0,circle,circle,0.2,right
9,110,8,triangle,right,1.0717273200007185,0,lose,lose,stay,0,circle,circle,0.2,right
9,111,8,circle,right,1.287536320000072,1,win,lose,shift,0,circle,circle,0.2,left
9,112,8,circle,left,1.121286820000023,1,win,win,stay,0,circle,circle,0.2,right
9,113,8,circle,right,0.7049029200024961,1,lose,win,stay,0,circle,triangle,0.2,left
9,114,8,circle,right,0.755012319998059,1,lose,lose,stay,0,circle,triangle,0.2,left
9,115,8,circle,right,0.48894622000079835,1,lose,lose,stay,0,circle,triangle,0.2,left
9,116,8,circle,right,0.4723020200017345,1,win,lose,stay,0,circle,circle,0.2,left
9,117,9,circle,left,0.43813262000003306,0,lose,win,stay,1,triangle,triangle,0.8,right
9,118,9,triangle,right,0.4040776200017717,1,win,lose,shift,0,triangle,triangle,0.8,right
9,119,9,circle,right,0.7888168200006476,0,lose,win,shift,0,triangle,triangle,0.8,left
9,120,9,circle,left,1.6543652199998178,0,lose,lose,stay,0,triangle,triangle,0.8,right
9,121,9,triangle,left,1.4869887200020457,1,lose,lose,shift,0,triangle,circle,0.8,left
9,122,9,circle,left,1.838910919999762,0,win,lose,shift,0,triangle,circle,0.8,right
9,123,9,triangle,right,1.038806119999208,1,win,win,shift,0,triangle,triangle,0.8,right
9,124,9,triangle,right,1.171168820001185,1,win,win,stay,0,triangle,triangle,0.8,right
9,125,9,circle,right,4.037226320000627,0,lose,win,shift,0,triangle,triangle,0.8,left
9,126,9,triangle,right,1.5713002200027404,1,lose,lose,shift,0,triangle,circle,0.8,right
9,127,9,circle,right,0.37207562000185135,0,lose,lose,shift,0,triangle,triangle,0.8,left
9,128,9,circle,right,0.5885436200005643,0,lose,lose,stay,0,triangle,triangle,0.8,left
9,129,9,circle,right,0.9385774200018204,0,lose,lose,stay,0,triangle,triangle,0.8,left
9,130,9,circle,right,0.4709550200004742,0,lose,lose,stay,0,triangle,triangle,0.8,left
9,131,9,triangle,right,0.8380506200028321,1,win,lose,shift,0,triangle,triangle,0.8,right
9,132,9,triangle,left,1.087173920001078,1,lose,win,stay,0,triangle,circle,0.8,left
9,133,10,triangle,right,0.38806032000138657,0,lose,lose,stay,1,circle,circle,0.2,right
9,134,10,circle,right,0.7709830200001306,1,lose,lose,shift,0,circle,triangle,0.2,left
9,135,10,circle,left,1.5546436200020253,1,win,lose,stay,0,circle,circle,0.2,right
9,136,10,triangle,left,2.453733820000707,0,lose,win,shift,0,circle,circle,0.2,left
9,137,10,circle,left,0.7382145200008381,1,win,lose,shift,0,circle,circle,0.2,right
9,138,10,circle,right,1.0040945200016722,1,win,win,stay,0,circle,circle,0.2,left
9,139,10,triangle,right,0.7207697200010443,0,lose,win,shift,0,circle,circle,0.2,right
9,140,10,circle,right,0.8055234200000996,1,win,lose,shift,0,circle,circle,0.2,left
9,141,10,triangle,right,1.1207998200006841,0,win,win,shift,0,circle,triangle,0.2,right
9,142,10,circle,left,2.2543599200016615,1,lose,win,shift,0,circle,triangle,0.2,right
9,143,10,triangle,right,0.4551255200003652,0,lose,lose,shift,0,circle,circle,0.2,right
9,144,10,circle,right,0.3886359199987055,1,win,lose,shift,0,circle,circle,0.2,left
9,145,10,triangle,right,2.971537220000755,0,win,win,shift,0,circle,triangle,0.2,right
9,146,10,circle,left,1.987946520002879,1,win,win,shift,0,circle,circle,0.2,right
9,147,10,circle,left,1.2876491200004239,1,win,win,stay,0,circle,circle,0.2,right
9,148,10,triangle,right,2.0880886199993256,0,lose,win,shift,0,circle,circle,0.2,right
9,149,11,triangle,left,0.5713437200010958,1,lose,lose,stay,1,triangle,circle,0.5,left
9,150,11,triangle,left,1.2721662200019637,1,win,lose,stay,0,triangle,triangle,0.5,left
9,151,11,triangle,left,1.0381938200007426,1,lose,win,stay,0,triangle,circle,0.5,left
9,152,11,triangle,right,0.671695520000867,1,lose,lose,stay,0,triangle,circle,0.5,right
9,153,11,circle,right,0.8871882200019172,0,win,lose,shift,0,triangle,circle,0.5,left
9,154,11,circle,right,1.1051782200011075,0,win,win,stay,0,triangle,circle,0.5,left
9,155,11,circle,right,1.8887383200017211,0,win,win,stay,0,triangle,circle,0.5,left
9,156,11,triangle,right,0.8209787200012215,1,lose,win,shift,0,triangle,circle,0.5,right
9,157,11,circle,left,1.6704362200016476,0,win,lose,shift,0,triangle,circle,0.5,right
9,158,11,circle,right,0.9379688199987868,0,win,win,stay,0,triangle,circle,0.5,left
9,159,11,circle,right,2.088125919999584,0,lose,win,stay,0,triangle,triangle,0.5,left
9,160,11,triangle,left,1.0869669199983036,1,lose,lose,shift,0,triangle,circle,0.5,left
9,161,11,triangle,right,0.3876083200011635,1,lose,lose,stay,0,triangle,circle,0.5,right
9,162,11,triangle,right,0.3205389200011268,1,win,lose,stay,0,triangle,triangle,0.5,right
9,163,11,triangle,right,0.7724517200022092,1,lose,win,stay,0,triangle,circle,0.5,right
9,164,11,triangle,left,0.7869631199992,1,lose,lose,stay,0,triangle,circle,0.5,left
9,165,12,triangle,right,0.3548607200027618,0,lose,lose,stay,1,circle,circle,0.2,right
9,166,12,circle,right,1.304031120000218,1,win,lose,shift,0,circle,circle,0.2,left
9,167,12,triangle,right,1.320775219999632,0,lose,win,shift,0,circle,circle,0.2,right
9,168,12,circle,right,1.471680220001872,1,win,lose,shift,0,circle,circle,0.2,left
9,169,12,circle,left,1.1218665199994575,1,win,win,stay,0,circle,circle,0.2,right
9,170,12,triangle,right,1.4555143199995655,0,lose,win,shift,0,circle,circle,0.2,right
9,171,12,circle,right,0.9876261200006411,1,win,lose,shift,0,circle,circle,0.2,left
9,172,12,circle,right,1.4385670200008462,1,win,win,stay,0,circle,circle,0.2,left
9,173,12,circle,left,1.5538733199991839,1,win,win,stay,0,circle,circle,0.2,right
9,174,12,circle,right,2.2387455200023396,1,win,win,stay,0,circle,circle,0.2,left
9,175,13,triangle,right,1.6877462200027367,1,win,win,shift,1,triangle,triangle,0.8,right
9,176,13,triangle,right,1.570492920000106,1,lose,win,stay,0,triangle,circle,0.8,right
9,177,13,circle,left,1.4550572200005263,0,lose,lose,shift,0,triangle,triangle,0.8,right
9,178,13,circle,right,0.7714551200024289,0,lose,lose,stay,0,triangle,triangle,0.8,left
9,179,13,circle,right,0.7890751200011437,0,win,lose,stay,0,triangle,circle,0.8,left
9,180,13,circle,right,1.5550830200008932,0,win,win,stay,0,triangle,circle,0.8,left
9,181,13,circle,left,3.188922020000973,0,lose,win,stay,0,triangle,triangle,0.8,right
9,182,13,triangle,right,1.1045904200018413,1,win,lose,shift,0,triangle,triangle,0.8,right
9,183,13,circle,left,1.0219062200012559,0,lose,win,shift,0,triangle,triangle,0.8,right
9,184,13,triangle,left,0.40476702000160003,1,lose,lose,shift,0,triangle,circle,0.8,left
9,185,13,triangle,left,0.7884774200010725,1,win,lose,stay,0,triangle,triangle,0.8,left
9,186,13,circle,left,1.488992419999704,0,lose,win,shift,0,triangle,triangle,0.8,right
9,187,13,circle,left,0.4212187200009794,0,win,lose,stay,0,triangle,circle,0.8,right
9,188,13,circle,left,1.155409420000069,0,lose,win,stay,0,triangle,triangle,0.8,right
9,189,13,circle,right,2.1720460200012894,0,lose,lose,stay,0,triangle,triangle,0.8,left
9,190,13,triangle,right,0.8383036200011702,1,lose,lose,shift,0,triangle,circle,0.8,right
9,191,14,triangle,right,1.9551484200001141,0,lose,lose,stay,1,circle,circle,0.5,right
9,192,14,circle,right,0.9703467200015439,1,lose,lose,shift,0,circle,triangle,0.5,left
9,193,14,circle,right,1.088092920002964,1,lose,lose,stay,0,circle,triangle,0.5,left
9,194,14,triangle,left,1.721591220000846,0,win,lose,shift,0,circle,triangle,0.5,left
9,195,14,circle,right,1.1044007199998305,1,win,win,shift,0,circle,circle,0.5,left
9,196,14,circle,left,0.9542354200002592,1,win,win,stay,0,circle,circle,0.5,right
9,197,14,triangle,right,2.4039092200000596,0,lose,win,shift,0,circle,circle,0.5,right
9,198,14,circle,left,1.0054291200012813,1,lose,lose,shift,0,circle,triangle,0.5,right
9,199,14,circle,right,1.121921920001114,1,win,lose,stay,0,circle,circle,0.5,left
9,200,14,triangle,right,2.1045594200022606,0,win,win,shift,0,circle,triangle,0.5,right
9,201,14,circle,left,3.554120819999298,1,win,win,shift,0,circle,circle,0.5,right
9,202,15,triangle,right,1.3221052199987753,1,win,win,shift,1,triangle,triangle,0.8,right
9,203,15,triangle,right,1.071805220000897,1,win,win,stay,0,triangle,triangle,0.8,right
9,204,15,triangle,left,3.254549519999273,1,lose,win,stay,0,triangle,circle,0.8,left
9,205,15,triangle,right,0.38765521999994235,1,win,lose,stay,0,triangle,triangle,0.8,right
9,206,15,circle,right,0.7036591200012481,0,win,win,shift,0,triangle,circle,0.8,left
9,207,15,circle,left,4.737627219999922,0,lose,win,stay,0,triangle,triangle,0.8,right
9,208,15,circle,right,1.5214035200006037,0,lose,lose,stay,0,triangle,triangle,0.8,left
9,209,15,triangle,right,3.4047133200001554,1,win,lose,shift,0,triangle,triangle,0.8,right
9,210,15,triangle,right,1.3048427199992148,1,win,win,stay,0,triangle,triangle,0.8,right
9,211,15,triangle,right,0.8041741200013348,1,win,win,stay,0,triangle,triangle,0.8,right
9,212,16,triangle,right,0.9384695200005808,0,lose,win,stay,1,circle,circle,0.2,right
9,213,16,triangle,right,4.45520862000194,0,lose,lose,stay,0,circle,circle,0.2,right
9,214,16,circle,left,1.5717606199996226,1,win,lose,shift,0,circle,circle,0.2,right
9,215,16,circle,left,3.020433920002688,1,win,win,stay,0,circle,circle,0.2,right
9,216,16,circle,left,3.1555036200006725,1,win,win,stay,0,circle,circle,0.2,right
9,217,16,,[],[],0,lose,win,shift,0,circle,triangle,0.2,left
9,217,16,triangle,left,0.5711859200000617,0,win,win,shift,0,circle,triangle,0.2,left
9,218,16,circle,left,2.8215010200019606,1,win,win,shift,0,circle,circle,0.2,right
9,219,16,circle,left,0.9885907200005022,1,win,win,stay,0,circle,circle,0.2,right
9,220,16,circle,left,1.7204680200029543,1,win,win,stay,0,circle,circle,0.2,right
9,221,16,circle,right,1.6386099200008175,1,win,win,stay,0,circle,circle,0.2,left
9,222,17,circle,right,0.9380139200002304,0,win,win,stay,1,triangle,circle,0.5,left
9,223,17,circle,right,1.0213197200009745,0,lose,win,stay,0,triangle,triangle,0.5,left
9,224,17,triangle,right,0.6381743199981429,1,lose,lose,shift,0,triangle,circle,0.5,right
9,225,17,circle,left,0.8547606200027076,0,lose,lose,shift,0,triangle,triangle,0.5,right
9,226,17,circle,left,0.620530720001625,0,lose,lose,stay,0,triangle,triangle,0.5,right
9,227,17,circle,left,0.8382252199990035,0,lose,lose,stay,0,triangle,triangle,0.5,right
9,228,17,triangle,right,0.9055172200005472,1,lose,lose,shift,0,triangle,circle,0.5,right
9,229,17,circle,right,0.8713555200010887,0,lose,lose,shift,0,triangle,triangle,0.5,left
9,230,17,circle,left,1.02214622000065,0,win,lose,stay,0,triangle,circle,0.5,right
9,231,17,circle,right,1.4549478200024168,0,win,win,stay,0,triangle,circle,0.5,left
9,232,17,triangle,left,1.5050419200015313,1,lose,win,shift,0,triangle,circle,0.5,left
9,233,17,triangle,left,1.1555547200005094,1,lose,lose,stay,0,triangle,circle,0.5,left
9,234,17,circle,right,0.8705026200004795,0,win,lose,shift,0,triangle,circle,0.5,left
9,235,17,triangle,right,0.6708141200015234,1,lose,win,shift,0,triangle,circle,0.5,right
9,236,17,circle,right,0.9880050199990364,0,lose,lose,shift,0,triangle,triangle,0.5,left
9,237,17,triangle,left,0.6045242199998029,1,win,lose,shift,0,triangle,triangle,0.5,left
9,238,18,triangle,right,1.3382417200027703,0,lose,win,stay,1,circle,circle,0.2,right
9,239,18,triangle,right,1.1377691200013942,0,lose,lose,stay,0,circle,circle,0.2,right
9,240,18,circle,left,1.5177948199980165,1,win,lose,shift,0,circle,circle,0.2,right
9,241,18,circle,left,1.4701313200002915,1,win,win,stay,0,circle,circle,0.2,right
9,242,18,triangle,left,1.388132920001226,0,lose,win,shift,0,circle,circle,0.2,left
9,243,18,circle,right,0.38887271999919903,1,win,lose,shift,0,circle,circle,0.2,left
9,244,18,triangle,right,1.504218519999995,0,win,win,shift,0,circle,triangle,0.2,right
9,245,18,circle,left,1.8542279199991754,1,win,win,shift,0,circle,circle,0.2,right
9,246,18,circle,right,1.0203521200000978,1,win,win,stay,0,circle,circle,0.2,left
9,247,18,circle,right,1.2040713200003665,1,win,win,stay,0,circle,circle,0.2,left
9,248,18,triangle,right,1.1876728200022626,0,lose,win,shift,0,circle,circle,0.2,right
9,249,18,circle,right,0.687570220001362,1,win,lose,shift,0,circle,circle,0.2,left
9,250,19,circle,right,0.6223794200013799,0,win,win,stay,1,triangle,circle,0.8,left
13,1,1,circle,right,2.2381240199993,1,win,[],[],1,circle,circle,0.2,left
13,2,1,circle,right,0.721866519998002,1,win,win,stay,0,circle,circle,0.2,left
13,3,1,circle,right,0.604900119999002,1,win,win,stay,0,circle,circle,0.2,left
13,4,1,circle,right,0.638250119998702,1,win,win,stay,0,circle,circle,0.2,left
13,5,1,circle,left,1.23863342000004,1,win,win,stay,0,circle,circle,0.2,right
13,6,1,circle,right,0.654679720000786,1,lose,win,stay,0,circle,triangle,0.2,left
13,7,1,triangle,left,0.605047919998469,0,lose,lose,shift,0,circle,circle,0.2,left
13,8,1,triangle,left,0.588035719998516,0,lose,lose,stay,0,circle,circle,0.2,left
13,9,1,circle,right,0.57148861999849,1,win,lose,shift,0,circle,circle,0.2,left
13,10,1,circle,left,1.02212082000005,1,win,win,stay,0,circle,circle,0.2,right
13,11,2,circle,left,0.471346119998998,0,lose,win,stay,1,triangle,triangle,0.8,right
13,12,2,triangle,left,0.621903720000773,1,win,lose,shift,0,triangle,triangle,0.8,left
13,13,2,triangle,left,0.504070019998835,1,win,win,stay,0,triangle,triangle,0.8,left
13,14,2,triangle,right,0.654824919998646,1,win,win,stay,0,triangle,triangle,0.8,right
13,15,2,triangle,right,0.554706719998649,1,win,win,stay,0,triangle,triangle,0.8,right
13,16,2,triangle,right,0.654372619999776,1,win,win,stay,0,triangle,triangle,0.8,right
13,17,2,triangle,right,0.50466262000009,1,win,win,stay,0,triangle,triangle,0.8,right
13,18,2,triangle,left,0.638761619999059,1,lose,win,stay,0,triangle,circle,0.8,left
13,19,2,triangle,right,1.25394001999848,1,win,lose,stay,0,triangle,triangle,0.8,right
13,20,2,triangle,left,0.554601019999609,1,win,win,stay,0,triangle,triangle,0.8,left
13,21,3,triangle,right,0.42058901999917,0,win,win,stay,1,circle,triangle,0.5,right
13,22,3,triangle,left,0.486895719997847,0,lose,win,stay,0,circle,circle,0.5,left
13,23,3,triangle,left,0.687475019998601,0,lose,lose,stay,0,circle,circle,0.5,left
13,24,3,circle,right,0.405248519999077,1,lose,lose,shift,0,circle,triangle,0.5,left
13,25,3,circle,right,0.404183619997639,1,win,lose,stay,0,circle,circle,0.5,left
13,26,3,circle,right,0.505119819999891,1,win,win,stay,0,circle,circle,0.5,left
13,27,3,circle,right,0.370902819999174,1,lose,win,stay,0,circle,triangle,0.5,left
13,28,3,triangle,left,0.420961919999172,0,lose,lose,shift,0,circle,circle,0.5,left
13,29,3,triangle,right,1.17117321999831,0,win,lose,stay,0,circle,triangle,0.5,right
13,30,3,triangle,right,0.438657519998742,0,win,win,stay,0,circle,triangle,0.5,right
13,31,3,triangle,right,0.438321119998363,0,win,win,stay,0,circle,triangle,0.5,right
13,32,3,triangle,right,0.404487820000213,0,lose,win,stay,0,circle,circle,0.5,right
13,33,3,triangle,right,1.18844621999779,0,win,lose,stay,0,circle,triangle,0.5,right
13,34,3,triangle,right,0.372336219999852,0,win,win,stay,0,circle,triangle,0.5,right
13,35,3,triangle,left,0.572165620000305,0,win,win,stay,0,circle,triangle,0.5,left
13,36,3,triangle,left,0.537768219999634,0,win,win,stay,0,circle,triangle,0.5,left
13,37,4,triangle,right,0.887860419999924,1,lose,win,stay,1,triangle,circle,0.8,right
13,38,4,circle,left,0.371962020000865,0,lose,lose,shift,0,triangle,triangle,0.8,right
13,39,4,circle,right,0.571652319998975,0,win,lose,stay,0,triangle,circle,0.8,left
13,40,4,circle,right,0.521039219998784,0,win,win,stay,0,triangle,circle,0.8,left
13,41,4,circle,right,0.50524742000016,0,lose,win,stay,0,triangle,triangle,0.8,left
13,42,4,triangle,left,0.422062620000361,1,win,lose,shift,0,triangle,triangle,0.8,left
13,43,4,triangle,right,0.505114219999086,1,win,win,stay,0,triangle,triangle,0.8,right
13,44,4,triangle,left,0.721622520000892,1,win,win,stay,0,triangle,triangle,0.8,left
13,45,4,triangle,left,0.38833761999922,1,lose,win,stay,0,triangle,circle,0.8,left
13,46,4,circle,right,0.554932720000579,0,lose,lose,shift,0,triangle,triangle,0.8,left
13,47,4,circle,right,0.654430619999403,0,lose,lose,stay,0,triangle,triangle,0.8,left
13,48,4,triangle,right,0.671300219999466,1,win,lose,shift,0,triangle,triangle,0.8,right
13,49,4,triangle,left,0.887911719999465,1,lose,win,stay,0,triangle,circle,0.8,left
13,50,4,circle,left,0.722317819998352,0,lose,lose,shift,0,triangle,triangle,0.8,right
13,51,4,circle,left,0.488533620000453,0,lose,lose,stay,0,triangle,triangle,0.8,right
13,52,4,triangle,left,0.971731119998367,1,lose,lose,shift,0,triangle,circle,0.8,left
13,53,5,circle,right,0.970725419998416,1,win,lose,shift,1,circle,circle,0.2,left
13,54,5,circle,right,0.555284619998929,1,win,win,stay,0,circle,circle,0.2,left
13,55,5,circle,left,0.621340719997534,1,win,win,stay,0,circle,circle,0.2,right
13,56,5,circle,right,0.587312019999445,1,lose,win,stay,0,circle,triangle,0.2,left
13,57,5,circle,left,0.737866019999274,1,win,lose,stay,0,circle,circle,0.2,right
13,58,5,circle,right,0.737309820000519,1,win,win,stay,0,circle,circle,0.2,left
13,59,5,circle,left,0.538596120000875,1,lose,win,stay,0,circle,triangle,0.2,right
13,60,5,circle,right,0.604603919997317,1,lose,lose,stay,0,circle,triangle,0.2,left
13,61,5,triangle,right,0.588712320000923,0,lose,lose,shift,0,circle,circle,0.2,right
13,62,5,circle,left,0.520839019998675,1,lose,lose,shift,0,circle,triangle,0.2,right
13,63,6,circle,left,0.37136731999999,0,lose,lose,stay,1,triangle,triangle,0.8,right
13,64,6,circle,left,0.587829520000014,0,win,lose,stay,0,triangle,circle,0.8,right
13,65,6,circle,right,0.404800719999912,0,lose,win,stay,0,triangle,triangle,0.8,left
13,66,6,triangle,left,0.671950619998825,1,win,lose,shift,0,triangle,triangle,0.8,left
13,67,6,triangle,right,0.621548519999124,1,lose,win,stay,0,triangle,circle,0.8,right
13,68,6,triangle,left,0.737051519998204,1,win,lose,stay,0,triangle,triangle,0.8,left
13,69,6,circle,right,0.43839952000053,0,lose,win,shift,0,triangle,triangle,0.8,left
13,70,6,triangle,left,0.388303319998158,1,win,lose,shift,0,triangle,triangle,0.8,left
13,71,6,triangle,left,0.57106191999992,1,lose,win,stay,0,triangle,circle,0.8,left
13,72,6,triangle,right,1.42120452000017,1,win,lose,stay,0,triangle,triangle,0.8,right
13,73,6,circle,left,0.504231919998347,0,lose,win,shift,0,triangle,triangle,0.8,right
13,74,6,circle,right,0.822352719998889,0,lose,lose,stay,0,triangle,triangle,0.8,left
13,75,6,circle,right,0.48800042000039,0,lose,lose,stay,0,triangle,triangle,0.8,left
13,76,6,triangle,right,1.03801451999971,1,lose,lose,shift,0,triangle,circle,0.8,right
13,77,6,circle,right,0.605417219998344,0,win,lose,shift,0,triangle,circle,0.8,left
13,78,6,circle,right,0.505321320000803,0,lose,win,stay,0,triangle,triangle,0.8,left
13,79,7,circle,right,0.438559520000126,1,lose,lose,stay,1,circle,triangle,0.5,left
13,80,7,circle,right,0.571685920000164,1,lose,lose,stay,0,circle,triangle,0.5,left
13,81,7,circle,left,1.13735162000012,1,lose,lose,stay,0,circle,triangle,0.5,right
13,82,7,triangle,left,0.622128619999785,0,win,lose,shift,0,circle,triangle,0.5,left
13,83,7,triangle,right,0.638773919999949,0,win,win,stay,0,circle,triangle,0.5,right
13,84,7,triangle,right,0.887458420000257,0,lose,win,stay,0,circle,circle,0.5,right
13,85,7,circle,right,1.2208250199983,1,win,lose,shift,0,circle,circle,0.5,left
13,86,7,triangle,right,0.570666820000042,0,lose,win,shift,0,circle,circle,0.5,right
13,87,7,circle,right,1.38829991999773,1,lose,lose,shift,0,circle,triangle,0.5,left
13,88,7,triangle,right,0.738865220000662,0,lose,lose,shift,0,circle,circle,0.5,right
13,89,7,triangle,left,0.821912920000614,0,lose,lose,stay,0,circle,circle,0.5,left
13,90,7,triangle,right,1.02135092000026,0,lose,lose,stay,0,circle,circle,0.5,right
13,91,7,triangle,right,0.504327619997639,0,lose,lose,stay,0,circle,circle,0.5,right
13,92,7,triangle,left,0.788754420000259,0,win,lose,stay,0,circle,triangle,0.5,left
13,93,7,triangle,right,0.621130219997212,0,win,win,stay,0,circle,triangle,0.5,right
13,94,7,triangle,left,0.837247219998972,0,win,win,stay,0,circle,triangle,0.5,left
13,95,8,triangle,right,0.537656319997041,0,lose,win,stay,1,circle,circle,0.2,right
13,96,8,circle,left,0.621258420000231,1,win,lose,shift,0,circle,circle,0.2,right
13,97,8,circle,right,0.503897819999111,1,win,win,stay,0,circle,circle,0.2,left
13,98,8,circle,right,0.55499251999936,1,win,win,stay,0,circle,circle,0.2,left
13,99,8,circle,left,0.571851919999972,1,win,win,stay,0,circle,circle,0.2,right
13,100,8,circle,left,0.520790219999981,1,win,win,stay,0,circle,circle,0.2,right
13,101,8,circle,right,0.570725319999838,1,lose,win,stay,0,circle,triangle,0.2,left
13,102,8,triangle,right,0.488454819998879,0,lose,lose,shift,0,circle,circle,0.2,right
13,103,8,triangle,left,0.622292820000439,0,lose,lose,stay,0,circle,circle,0.2,left
13,104,8,circle,left,0.571367020000253,1,lose,lose,shift,0,circle,triangle,0.2,right
13,105,9,triangle,right,0.422106919999351,1,win,lose,shift,1,triangle,triangle,0.8,right
13,106,9,triangle,left,0.589063419998638,1,win,win,stay,0,triangle,triangle,0.8,left
13,107,9,triangle,left,0.604863919999843,1,win,win,stay,0,triangle,triangle,0.8,left
13,108,9,triangle,left,0.671163520000846,1,win,win,stay,0,triangle,triangle,0.8,left
13,109,9,triangle,right,1.40387831999942,1,lose,win,stay,0,triangle,circle,0.8,right
13,110,9,circle,right,1.18877412000074,0,win,lose,shift,0,triangle,circle,0.8,left
13,111,9,circle,right,0.487229919999663,0,win,win,stay,0,triangle,circle,0.8,left
13,112,9,circle,right,0.537061119997816,0,win,win,stay,0,triangle,circle,0.8,left
13,113,9,circle,right,0.454239019998568,0,lose,win,stay,0,triangle,triangle,0.8,left
13,114,9,circle,left,0.755185320000237,0,win,lose,stay,0,triangle,circle,0.8,right
13,115,9,circle,left,0.53803612000047,0,lose,win,stay,0,triangle,triangle,0.8,right
13,116,9,circle,right,0.504405820000102,0,win,lose,stay,0,triangle,circle,0.8,left
13,117,9,circle,right,0.488505019999138,0,win,win,stay,0,triangle,circle,0.8,left
13,118,9,circle,left,0.57128511999872,0,lose,win,stay,0,triangle,triangle,0.8,right
13,119,9,circle,right,0.454426320000493,0,lose,lose,stay,0,triangle,triangle,0.8,left
13,120,9,circle,left,0.553948019998643,0,lose,lose,stay,0,triangle,triangle,0.8,right
13,121,10,triangle,left,0.389033919998838,0,lose,lose,shift,1,circle,circle,0.2,left
13,122,10,triangle,left,0.504961719998391,0,lose,lose,stay,0,circle,circle,0.2,left
13,123,10,triangle,left,0.52037571999972,0,lose,lose,stay,0,circle,circle,0.2,left
13,124,10,circle,left,0.504063119999046,1,win,lose,shift,0,circle,circle,0.2,right
13,125,10,circle,left,0.405603519999204,1,win,win,stay,0,circle,circle,0.2,right
13,126,10,circle,right,0.537665019999622,1,win,win,stay,0,circle,circle,0.2,left
13,127,10,circle,left,0.671314119999806,1,win,win,stay,0,circle,circle,0.2,right
13,128,10,circle,right,0.471161819998088,1,win,win,stay,0,circle,circle,0.2,left
13,129,10,circle,right,0.504210220000459,1,win,win,stay,0,circle,circle,0.2,left
13,130,10,circle,right,0.555475619998106,1,lose,win,stay,0,circle,triangle,0.2,left
13,131,11,triangle,right,0.504389619998619,1,lose,lose,shift,1,triangle,circle,0.5,right
13,132,11,circle,left,0.73714751999978,0,lose,lose,shift,0,triangle,triangle,0.5,right
13,133,11,circle,right,0.621883519997937,0,win,lose,stay,0,triangle,circle,0.5,left
13,134,11,circle,left,0.687958720000097,0,lose,win,stay,0,triangle,triangle,0.5,right
13,135,11,circle,right,0.622067219999735,0,lose,lose,stay,0,triangle,triangle,0.5,left
13,136,11,circle,left,0.505597119999948,0,lose,lose,stay,0,triangle,triangle,0.5,right
13,137,11,circle,right,0.505071620000308,0,lose,lose,stay,0,triangle,triangle,0.5,left
13,138,11,circle,left,0.587462719999166,0,lose,lose,stay,0,triangle,triangle,0.5,right
13,139,11,triangle,right,0.40354281999862,1,lose,lose,shift,0,triangle,circle,0.5,right
13,140,11,circle,left,0.538288319998173,0,lose,lose,shift,0,triangle,triangle,0.5,right
13,141,11,circle,right,0.505182119999517,0,win,lose,stay,0,triangle,circle,0.5,left
13,142,11,circle,left,0.521079320000354,0,lose,win,stay,0,triangle,triangle,0.5,right
13,143,11,circle,right,0.52233632000025,0,win,lose,stay,0,triangle,circle,0.5,left
13,144,11,triangle,right,0.420912019997559,1,lose,win,shift,0,triangle,circle,0.5,right
13,145,11,circle,left,0.738815819999218,0,lose,lose,shift,0,triangle,triangle,0.5,right
13,146,11,circle,right,1.52151331999994,0,lose,lose,stay,0,triangle,triangle,0.5,left
13,147,12,triangle,right,0.553848419998758,0,win,lose,shift,1,circle,triangle,0.2,right
13,148,12,triangle,left,1.85381821999908,0,lose,win,stay,0,circle,circle,0.2,left
13,149,12,triangle,left,0.622416719998,0,lose,lose,stay,0,circle,circle,0.2,left
13,150,12,triangle,right,1.20467151999947,0,lose,lose,stay,0,circle,circle,0.2,right
13,151,12,triangle,left,1.18775561999973,0,lose,lose,stay,0,circle,circle,0.2,left
13,152,12,circle,right,0.404520719999709,1,win,lose,shift,0,circle,circle,0.2,left
13,153,12,circle,left,0.471075319997908,1,win,win,stay,0,circle,circle,0.2,right
13,154,12,circle,left,0.403843219999544,1,win,win,stay,0,circle,circle,0.2,right
13,155,12,circle,left,0.354794719998608,1,lose,win,stay,0,circle,triangle,0.2,right
13,156,12,circle,right,0.571836519999124,1,win,lose,stay,0,circle,circle,0.2,left
13,157,12,circle,right,0.670921519998956,1,win,win,stay,0,circle,circle,0.2,left
13,158,12,circle,left,0.554732719998356,1,win,win,stay,0,circle,circle,0.2,right
13,159,13,triangle,right,0.487317719998828,1,win,win,shift,1,triangle,triangle,0.8,right
13,160,13,triangle,right,0.804043619997174,1,win,win,stay,0,triangle,triangle,0.8,right
13,161,13,triangle,right,0.389035719999811,1,win,win,stay,0,triangle,triangle,0.8,right
13,162,13,circle,left,0.438920219998181,0,lose,win,shift,0,triangle,triangle,0.8,right
13,163,13,circle,right,0.52035541999976,0,lose,lose,stay,0,triangle,triangle,0.8,left
13,164,13,circle,left,0.437550120001106,0,lose,lose,stay,0,triangle,triangle,0.8,right
13,165,13,circle,left,0.354073520000384,0,win,lose,stay,0,triangle,circle,0.8,right
13,166,13,circle,right,0.437923719999162,0,lose,win,stay,0,triangle,triangle,0.8,left
13,167,13,circle,right,0.521328219998395,0,lose,lose,stay,0,triangle,triangle,0.8,left
