sID,trialNumber,prID,nTotal,true_ratio,fillerTrial,ITI,seen_ratio,nMushrooms,nBlue,nRed,estimate1,estimate1RT,estimate2,estimate2RT,estimate_peer,confidence_peer,traits1,traits2,traits3,s,strategy,sex,age
1,1,,45,0.5,0,1.5,0.511111111,"9,9,9,9,9","6,3,4,5,5","3,6,5,4,4",50,3.319,50,4.63,65,1,,,,0,stay,Male,24
1,2,,45,0.125,0,1.9,0.133333333,"9,9,9,9,9","1,2,1,0,2","8,7,8,9,7",8,3.75,12,4.298,24,1,,,,0.25,compromise,Male,24
1,3,,5,1,1,2,1,"1,1,1,1,1","1,1,1,1,1","0,0,0,0,0",100,6.451,100,2.894,100,3,,,,NA,NA,Male,24
1,4,,5,0.25,0,1.7,0.2,"1,1,1,1,1","0,1,0,0,0","1,0,1,1,1",20,4.582,28,7.067,38,2,,,,0.4444444444444444,compromise,Male,24
1,5,,45,0.375,0,1.6,0.377777778,"9,9,9,9,9","3,4,5,3,2","6,5,4,6,7",40,9.416,30,4.721,23,2,,,,0.5882352941176471,compromise,Male,24
1,6,,45,0.375,0,1.9,0.377777778,"9,9,9,9,9","5,5,4,1,2","4,4,5,8,7",45,1.847,37,6.685,27,3,,,,0.4444444444444444,compromise,Male,24
1,7,,45,0.875,1,2,0.866666667,"9,9,9,9,9","8,6,9,7,9","1,3,0,2,0",90,3.111,90,4.561,89,3,,,,0,stay,Male,24
1,8,,5,0.375,0,2,0.4,"1,1,1,1,1","0,1,0,1,0","1,0,1,0,1",40,3.958,32,5.902,25,2,,,,0.5333333333333333,compromise,Male,24
1,9,,5,0.625,1,1.7,0.6,"1,1,1,1,1","1,1,0,1,0","0,0,1,0,1",60,2.625,60,3.275,60,2,,,,NA,NA,Male,24
1,10,,5,0.875,0,1.5,0.8,"1,1,1,1,1","1,0,1,1,1","0,1,0,0,0",80,3.464,88,7.512,97,1,,,,0.47058823529411764,compromise,Male,24
1,11,,45,0.625,0,1.7,0.622222222,"9,9,9,9,9","3,7,6,6,6","6,2,3,3,3",75,3.493,70,5.277,59,1,,,,0.3125,compromise,Male,24
1,12,,45,0.75,1,1.5,0.755555556,"9,9,9,9,9","5,6,9,7,7","4,3,0,2,2",80,2.292,80,2.95,81,1,,,,0,stay,Male,24
1,13,,5,0.625,0,1.7,0.6,"1,1,1,1,1","1,0,0,1,1","0,1,1,0,0",60,2.355,70,4.615,75,3,,,,0.6666666666666666,compromise,Male,24
1,14,,45,0.75,0,1.9,0.755555556,"9,9,9,9,9","6,7,5,8,8","3,2,4,1,1",85,2.368,75,5.2,70,3,,,,0.6666666666666666,compromise,Male,24
1,15,,5,0.75,0,1.5,0.8,"1,1,1,1,1","1,1,1,1,0","0,0,0,0,1",80,2.743,70,4.721,65,3,,,,0.6666666666666666,compromise,Male,24
1,16,,5,0.375,0,1.5,0.4,"1,1,1,1,1","0,1,0,0,1","1,0,1,1,0",40,2.583,33,6.254,25,1,,,,0.4666666666666667,compromise,Male,24
1,17,,45,0.5,0,1.6,0.511111111,"9,9,9,9,9","3,4,6,5,5","6,5,3,4,4",40,4.528,50,4.256,55,3,,,,0.6666666666666666,compromise,Male,24
1,18,,45,0.625,0,1.7,0.622222222,"9,9,9,9,9","6,7,5,6,4","3,2,4,3,5",62,3.645,75,4.158,80,3,,,,0.7222222222222222,compromise,Male,24
1,19,,45,0.25,0,1.5,0.244444444,"9,9,9,9,9","6,0,2,1,2","3,9,7,8,7",20,3.61,23,4.374,37,1,,,,0.17647058823529413,compromise,Male,24
1,20,,5,0.875,0,1.8,0.8,"1,1,1,1,1","1,0,1,1,1","0,1,0,0,0",80,2.166,85,5.506,97,2,,,,0.29411764705882354,compromise,Male,24
1,21,,45,0.625,0,1.8,0.622222222,"9,9,9,9,9","7,4,7,5,5","2,5,2,4,4",55,2.368,60,3.978,70,2,,,,0.3333333333333333,compromise,Male,24
1,22,,5,0.125,0,1.6,0.2,"1,1,1,1,1","0,0,0,1,0","1,1,1,0,1",20,1.652,12,6.582,4,1,,,,0.5,compromise,Male,24
1,23,,5,0.75,0,1.5,0.8,"1,1,1,1,1","1,1,1,1,0","0,0,0,0,1",80,1.159,72,3.86,63,1,,,,0.47058823529411764,compromise,Male,24
1,24,,45,0.375,0,1.5,0.377777778,"9,9,9,9,9","4,3,2,5,3","5,6,7,4,6",33,1.548,37,5.324,48,1,,,,0.26666666666666666,compromise,Male,24
1,25,,45,0,1,2,0,"9,9,9,9,9","0,0,0,0,0","9,9,9,9,9",2,4.542,0,4.735,0,3,,,,1,copy,Male,24
1,26,,5,0.25,0,1.6,0.2,"1,1,1,1,1","1,0,0,0,0","0,1,1,1,1",20,1.326,26,6.819,37,1,,,,0.35294117647058826,compromise,Male,24
1,27,,5,0.5,0,1.8,0.6,"1,1,1,1,1","1,0,1,0,1","0,1,0,1,0",60,2.186,47,6.637,43,2,,,,0.7647058823529411,compromise,Male,24
1,28,,5,0.5,0,1.9,0.6,"1,1,1,1,1","1,0,1,1,0","0,1,0,0,1",60,1.438,48,7.248,42,3,,,,0.6666666666666666,compromise,Male,24
1,29,,45,0.5,0,1.6,0.511111111,"9,9,9,9,9","5,4,4,4,6","4,5,5,5,3",40,4.271,48,6.401,55,2,,,,0.5333333333333333,compromise,Male,24
1,30,,5,0.125,0,1.8,0.2,"1,1,1,1,1","1,0,0,0,0","0,1,1,1,1",10,6.756,20,9.435,28,3,,,,0.5555555555555556,compromise,Male,24
1,31,,5,0.375,1,1.6,0.4,"1,1,1,1,1","0,1,1,0,0","1,0,0,1,1",40,2.785,60,9.13,85,1,,,,0.4444444444444444,compromise,Male,24
1,32,,5,0.625,0,1.6,0.6,"1,1,1,1,1","1,1,0,0,1","0,0,1,1,0",60,2.494,70,5.297,77,2,,,,0.5882352941176471,compromise,Male,24
1,33,,5,0,1,1.9,0,"1,1,1,1,1","0,0,0,0,0","1,1,1,1,1",0,1.117,0,2.228,0,3,,,,NA,NA,Male,24
1,34,,45,0.875,0,1.5,0.866666667,"9,9,9,9,9","8,9,7,8,7","1,0,2,1,2",90,2.751,85,4.268,72,2,,,,0.2777777777777778,compromise,Male,24
1,35,,5,0.875,0,1.9,0.8,"1,1,1,1,1","1,1,0,1,1","0,0,1,0,0",80,1.841,95,5.464,96,3,,,,0.9375,compromise,Male,24
1,36,,5,0.125,0,2,0.2,"1,1,1,1,1","1,0,0,0,0","0,1,1,1,1",20,1.299,13,4.943,5,2,,,,0.4666666666666667,compromise,Male,24
1,37,,45,0.75,0,2,0.755555556,"9,9,9,9,9","7,7,6,6,8","2,2,3,3,1",85,2.917,82,3.366,69,1,,,,0.1875,compromise,Male,24
1,38,,5,0.75,0,1.6,0.8,"1,1,1,1,1","0,1,1,1,1","1,0,0,0,0",80,1.652,70,3.041,63,2,,,,0.5882352941176471,compromise,Male,24
1,39,,45,0.25,0,2,0.244444444,"9,9,9,9,9","2,3,2,2,2","7,6,7,7,7",15,5.819,25,7.665,33,3,,,,0.5555555555555556,compromise,Male,24
1,40,,45,0.875,0,2,0.866666667,"9,9,9,9,9","8,8,9,8,6","1,1,0,1,3",80,9.792,90,3.437,96,3,,,,0.625,compromise,Male,24
1,41,,45,0.125,0,1.8,0.133333333,"9,9,9,9,9","1,1,2,0,2","8,8,7,9,7",15,3.5,10,7.783,0,3,,,,0.3333333333333333,compromise,Male,24
1,42,,5,0.25,0,1.6,0.2,"1,1,1,1,1","1,0,0,0,0","0,1,1,1,1",20,2.923,28,5.651,38,3,,,,0.4444444444444444,compromise,Male,24
1,43,,5,0.5,1,1.6,0.6,"1,1,1,1,1","0,1,1,0,1","1,0,0,1,0",60,1.646,40,7.45,5,1,,,,0.36363636363636365,compromise,Male,24
1,44,,5,0.375,0,2,0.4,"1,1,1,1,1","0,1,0,1,0","1,0,1,0,1",40,1.785,30,7.61,22,3,,,,0.5555555555555556,compromise,Male,24
1,45,,45,1,1,1.8,1,"9,9,9,9,9","9,9,9,9,9","0,0,0,0,0",100,1.59,99,4.991,98,3,,,,0.5,compromise,Male,24
1,46,,45,0.125,1,1.5,0.133333333,"9,9,9,9,9","1,1,2,1,1","8,8,7,8,8",10,4.326,25,4.359,78,1,,,,0.22058823529411764,compromise,Male,24
1,47,,5,0.625,0,2,0.6,"1,1,1,1,1","1,0,1,1,0","0,1,0,0,1",60,1.841,65,4.185,77,1,,,,0.29411764705882354,compromise,Male,24
1,48,,5,0,1,1.6,0,"1,1,1,1,1","0,0,0,0,0","1,1,1,1,1",0,1.112,0,1.963,0,3,,,,NA,NA,Male,24
1,49,,45,0.75,0,1.7,0.755555556,"9,9,9,9,9","7,6,5,7,9","2,3,4,2,0",25,1.715,33,3.845,42,2,,,,0.47058823529411764,compromise,Male,24
1,50,,45,0.875,0,1.9,0.866666667,"9,9,9,9,9","8,7,9,9,6","1,2,0,0,3",12,3.368,NA,NA,NA,NA,,,,NA,NA,Male,24
1,51,,45,0.25,0,1.9,0.244444444,"9,9,9,9,9","3,2,1,2,3","6,7,8,7,6",15,6.117,22,3.617,30,2,,,,0.4666666666666667,compromise,Male,24
1,52,,45,0.25,1,1.7,0.244444444,"9,9,9,9,9","2,4,3,2,0","7,5,6,7,9",13,5.646,20,5.199,84,1,,,,0.098591549,compromise,Male,24
1,53,,45,0.125,0,1.6,0.133333333,"9,9,9,9,9","2,0,1,1,2","7,9,8,8,7",5,2.202,10,4.268,21,2,,,,0.3125,compromise,Male,24
1,54,,5,0.5,0,1.5,0.6,"1,1,1,1,1","1,0,1,1,0","0,1,0,0,1",60,3.423,52,4.887,45,1,,,,0.5333333333333333,compromise,Male,24
2,1,,45,0.375,0,1.6,0.377777778,"9,9,9,9,9","3,5,3,3,3","6,4,6,6,6",35,2.5139,35,3.6965,51,1,,,,0,stay,Male,32
2,2,,45,0.125,1,1.8,0.133333333,"9,9,9,9,9","2,1,1,1,1","7,8,8,8,8",15,2.4138,15,4.9581,14,1,,,,0,stay,Male,32
2,3,,45,0.5,0,1.9,0.511111111,"9,9,9,9,9","6,4,3,4,6","3,5,6,5,3",55,2.3341,45,4.8549,37,2,,,,0.5555555555555556,compromise,Male,32
2,4,,45,0.875,0,1.7,0.866666667,"9,9,9,9,9","6,8,8,9,8","3,1,1,0,1",90,4.0297,85,6.1063,73,3,,,,0.29411764705882354,compromise,Male,32
2,5,,5,0,1,1.8,0,"1,1,1,1,1","0,0,0,0,0","1,1,1,1,1",0,9.0419,0,2.0267,0,3,,,,NA,NA,Male,32
2,6,,45,0.875,0,1.8,0.866666667,"9,9,9,9,9","9,6,9,8,7","0,3,0,1,2",90,1.8481,90,2.5596,74,1,,,,0,stay,Male,32
2,7,,5,0.375,1,2,0.4,"1,1,1,1,1","0,1,0,1,0","1,0,1,0,1",55,4.4626,50,3.8087,6,1,,,,0.10204081632653061,compromise,Male,32
2,8,,45,0.25,0,1.7,0.244444444,"9,9,9,9,9","2,3,5,1,0","7,6,4,8,9",25,2.9975,20,4.5411,9,2,,,,0.3125,compromise,Male,32
2,9,,5,0.125,0,1.8,0.2,"1,1,1,1,1","0,0,1,0,0","1,1,0,1,1",20,3.4801,15,3.6256,3,2,,,,0.29411764705882354,compromise,Male,32
2,10,,5,1,1,2,1,"1,1,1,1,1","1,1,1,1,1","0,0,0,0,0",90,5.1288,90,3.0755,90,3,,,,NA,NA,Male,32
2,11,,45,0.375,0,1.6,0.377777778,"9,9,9,9,9","3,2,4,6,2","6,7,5,3,7",37,4.6124,35,3.0806,21,2,,,,0.125,compromise,Male,32
2,12,,45,0.875,0,2,0.866666667,"9,9,9,9,9","6,8,8,9,8","3,1,1,0,1",85,1.7339,85,4.6439,100,2,,,,0,stay,Male,32
2,13,,5,0.875,0,1.6,0.8,"1,1,1,1,1","1,1,0,1,1","0,0,1,0,0",80,3.0512,80,3.9272,95,2,,,,0,stay,Male,32
2,14,,45,0,1,1.7,0,"9,9,9,9,9","0,0,0,0,0","9,9,9,9,9",0,1.915,0,2.0605,0,3,,,,NA,NA,Male,32
2,15,,5,0.625,0,1.5,0.6,"1,1,1,1,1","0,0,1,1,1","1,1,0,0,0",60,3.7963,70,3.0086,78,2,,,,0.5555555555555556,compromise,Male,32
2,16,,5,0.625,0,1.7,0.6,"1,1,1,1,1","1,0,0,1,1","0,1,1,0,0",70,4.8959,70,4.5458,53,1,,,,0,stay,Male,32
2,17,,5,0.5,0,1.6,0.6,"1,1,1,1,1","0,1,1,0,1","1,0,0,1,0",60,4.8445,55,4.3747,45,2,,,,0.3333333333333333,compromise,Male,32
2,18,,5,0.375,0,1.8,0.4,"1,1,1,1,1","0,1,1,0,0","1,0,0,1,1",40,4.4128,35,3.1423,25,2,,,,0.3333333333333333,compromise,Male,32
2,19,,5,0.75,0,1.8,0.8,"1,1,1,1,1","0,1,1,1,1","1,0,0,0,0",80,2.8474,80,3.3747,65,1,,,,0,stay,Male,32
2,20,,5,0.375,0,1.7,0.4,"1,1,1,1,1","0,1,1,0,0","1,0,0,1,1",40,4.8291,35,3.8297,25,3,,,,0.3333333333333333,compromise,Male,32
2,21,,45,0.25,0,1.8,0.244444444,"9,9,9,9,9","1,4,0,2,4","8,5,9,7,5",35,3.2638,30,3.2762,20,3,,,,0.3333333333333333,compromise,Male,32
2,22,,5,0.375,0,1.8,0.4,"1,1,1,1,1","1,1,0,0,0","0,0,1,1,1",40,2.1646,35,2.8642,25,1,,,,0.3333333333333333,compromise,Male,32
2,23,,5,0.875,0,1.7,0.8,"1,1,1,1,1","1,1,1,0,1","0,0,0,1,0",80,2.8341,85,3.6056,98,3,,,,0.2777777777777778,compromise,Male,32
2,24,,5,0.875,0,1.6,0.8,"1,1,1,1,1","1,1,1,0,1","0,0,0,1,0",80,2.3146,90,4.2584,97,1,,,,0.5882352941176471,compromise,Male,32
2,25,,5,0.75,0,1.8,0.8,"1,1,1,1,1","0,1,1,1,1","1,0,0,0,0",80,1.6473,72,4.8456,65,3,,,,0.5333333333333333,compromise,Male,32
2,26,,5,0.625,1,1.7,0.6,"1,1,1,1,1","0,1,1,1,0","1,0,0,0,1",60,3.1133,60,3.2639,60,3,,,,NA,NA,Male,32
2,27,,5,0.25,0,1.8,0.2,"1,1,1,1,1","0,0,0,0,1","1,1,1,1,0",20,1.718,25,4.0727,36,1,,,,0.3125,compromise,Male,32
2,28,,45,0.5,0,2,0.511111111,"9,9,9,9,9","2,5,5,7,4","7,4,4,2,5",56,5.4788,45,3.8634,40,3,,,,0.6875,compromise,Male,32
2,29,,5,0.625,0,1.5,0.6,"1,1,1,1,1","1,1,0,0,1","0,0,1,1,0",60,4.1937,70,4.7585,75,3,,,,0.6666666666666666,compromise,Male,32
2,30,,45,0.125,0,1.9,0.133333333,"9,9,9,9,9","1,2,1,1,1","8,7,8,8,8",20,2.3475,15,3.6753,3,2,,,,0.29411764705882354,compromise,Male,32
2,31,,45,0.75,0,1.7,0.755555556,"9,9,9,9,9","7,6,7,7,7","2,3,2,2,2",75,2.2313,70,6.5737,57,2,,,,0.2777777777777778,compromise,Male,32
2,32,,45,0.125,0,1.6,0.133333333,"9,9,9,9,9","4,1,0,0,1","5,8,9,9,8",15,1.8983,15,4.4788,0,1,,,,0,stay,Male,32
2,33,,45,0.75,0,1.9,0.755555556,"9,9,9,9,9","8,8,5,8,5","1,1,4,1,4",70,4.7291,75,5.041,86,3,,,,0.3125,compromise,Male,32
2,34,,45,0.625,0,2,0.622222222,"9,9,9,9,9","7,3,7,6,5","2,6,2,3,4",65,3.1636,60,3.3302,47,1,,,,0.2777777777777778,compromise,Male,32
2,35,,45,0.625,0,1.8,0.622222222,"9,9,9,9,9","6,4,4,8,6","3,5,5,1,3",70,3.0307,62,4.9618,55,2,,,,0.5333333333333333,compromise,Male,32
2,36,,5,0.5,0,1.9,0.6,"1,1,1,1,1","0,1,1,0,1","1,0,0,1,0",60,1.5331,50,4.0562,42,3,,,,0.5555555555555556,compromise,Male,32
2,37,,45,0.25,0,2,0.244444444,"9,9,9,9,9","1,4,2,1,3","8,5,7,8,6",30,3.6176,30,4.8546,13,1,,,,0,stay,Male,32
2,38,,5,0.5,0,1.7,0.6,"1,1,1,1,1","0,1,0,1,1","1,0,1,0,0",60,3.7466,60,2.8427,44,1,,,,0,stay,Male,32
2,39,,5,0.125,0,1.9,0.2,"1,1,1,1,1","0,0,0,0,1","1,1,1,1,0",20,2.3812,15,2.9257,5,1,,,,0.3333333333333333,compromise,Male,32
2,40,,45,0.25,1,1.6,0.244444444,"9,9,9,9,9","2,1,4,2,2","7,8,5,7,7",20,2.3977,15,7.2558,20,1,,,,#NAME?,stay,Male,32
2,41,,5,0.25,0,1.9,0.2,"1,1,1,1,1","0,0,0,0,1","1,1,1,1,0",20,1.1323,30,5.2121,38,3,,,,0.5555555555555556,compromise,Male,32
2,42,,45,0.75,1,1.9,0.755555556,"9,9,9,9,9","6,8,6,9,5","3,1,3,0,4",78,2.001,78,2.1786,78,3,,,,NA,NA,Male,32
2,43,,45,0.5,0,1.7,0.511111111,"9,9,9,9,9","4,5,4,5,5","5,4,5,4,4",45,1.432,52,5.878,63,1,,,,0.3888888888888889,compromise,Male,32
2,44,,45,0.125,0,1.9,0.133333333,"9,9,9,9,9","3,0,2,1,0","6,9,7,8,9",10,2.7143,17,5.9076,27,3,,,,0.4117647058823529,compromise,Male,32
2,45,,5,0.25,0,1.5,0.2,"1,1,1,1,1","0,0,0,1,0","1,1,1,0,1",20,1.1188,25,3.4065,35,2,,,,0.3333333333333333,compromise,Male,32
2,46,,5,0,1,1.7,0,"1,1,1,1,1","0,0,0,0,0","1,1,1,1,1",10,1.4984,9,3.2431,8,3,,,,0.5,compromise,Male,32
2,47,,5,0.75,0,1.8,0.8,"1,1,1,1,1","1,1,1,1,0","0,0,0,0,1",80,1.2157,72,6.373,63,2,,,,0.47058823529411764,compromise,Male,32
2,48,,45,1,1,1.9,1,"9,9,9,9,9","9,9,9,9,9","0,0,0,0,0",100,1.815,100,2.0447,100,3,,,,NA,NA,Male,32
2,49,,45,0.75,0,1.6,0.755555556,"9,9,9,9,9","6,8,8,6,6","3,1,1,3,3",82,2.581,78,8.4047,66,1,,,,0.25,compromise,Male,32
2,50,,45,0.375,0,1.7,0.377777778,"9,9,9,9,9","2,2,6,4,3","7,7,3,5,6",48,3.7301,35,8.6036,30,3,,,,0.7222222222222222,compromise,Male,32
2,51,,45,0.625,0,1.5,0.622222222,"9,9,9,9,9","7,8,7,4,2","2,1,2,5,7",42,2.6639,60,9.1086,60,3,,,,1,copy,Male,32
2,52,,5,0.5,1,2,0.6,"1,1,1,1,1","0,1,1,1,0","1,0,0,0,1",60,1.4179,60,4.1554,15,1,,,,0,stay,Male,32
2,53,,5,0.125,0,1.7,0.2,"1,1,1,1,1","1,0,0,0,0","0,1,1,1,1",20,1.5654,10,3.5261,5,3,,,,0.6666666666666666,compromise,Male,32
2,54,,45,0.875,1,1.9,0.866666667,"9,9,9,9,9","9,7,8,6,9","0,2,1,3,0",85,3.014,85,3.9084,31,1,,,,0,stay,Male,32
3,1,,5,0.125,0,2,0.2,"1,1,1,1,1","0,1,0,0,0","1,0,1,1,1",10,6.0616,15,6.5562,25,2,,,,0.3333333333333333,compromise,Female,36
3,2,,5,0.375,0,2,0.4,"1,1,1,1,1","0,0,1,0,1","1,1,0,1,0",40,4.048,40,6.2401,25,2,,,,0,stay,Female,36
3,3,,5,0.875,0,1.6,0.8,"1,1,1,1,1","1,1,1,1,0","0,0,0,0,1",80,2.1651,80,4.1423,97,3,,,,0,stay,Female,36
3,4,,5,0.75,0,1.9,0.8,"1,1,1,1,1","1,1,0,1,1","0,0,1,0,0",80,2.8822,80,3.161,65,3,,,,0,stay,Female,36
3,5,,5,0.125,0,2,0.2,"1,1,1,1,1","0,0,0,0,1","1,1,1,1,0",10,2.5151,10,2.9256,28,3,,,,0,stay,Female,36
3,6,,45,0.875,0,1.9,0.866666667,"9,9,9,9,9","8,6,8,8,9","1,3,1,1,0",85,6.8335,90,5.6872,100,2,,,,0.3333333333333333,compromise,Female,36
3,7,,45,0.375,0,1.8,0.377777778,"9,9,9,9,9","3,4,3,5,2","6,5,6,4,7",60,5.7681,60,5.454,45,1,,,,0,stay,Female,36
3,8,,5,0.25,0,2,0.2,"1,1,1,1,1","0,0,1,0,0","1,1,0,1,1",20,5.6679,20,2.5537,37,3,,,,0,stay,Female,36
3,9,,45,0.875,0,1.9,0.866666667,"9,9,9,9,9","7,9,8,8,7","2,0,1,1,2",90,4.4866,85,3.3203,73,1,,,,0.29411764705882354,compromise,Female,36
3,10,,45,0.125,0,1.7,0.133333333,"9,9,9,9,9","0,2,2,1,1","9,7,7,8,8",60,1.9322,60,1.4312,44,3,,,,0,stay,Female,36
3,11,,45,0.75,1,1.7,0.755555556,"9,9,9,9,9","7,6,8,8,5","2,3,1,1,4",80,5.6968,80,2.262,80,3,,,,NA,NA,Female,36
3,12,,5,0.5,0,1.5,0.6,"1,1,1,1,1","0,1,1,1,0","1,0,0,0,1",60,3.4309,60,2.6096,42,3,,,,0,stay,Female,36
3,13,,45,0.625,0,1.7,0.622222222,"9,9,9,9,9","5,4,8,5,6","4,5,1,4,3",68,7.3839,65,3.1389,51,1,,,,0.17647058823529413,compromise,Female,36
3,14,,5,0.375,0,2,0.4,"1,1,1,1,1","0,1,1,0,0","1,0,0,1,1",40,2.8281,80,8.0629,22,1,,,,-2.222222222,stay,Female,36
3,15,,45,0.5,0,1.8,0.511111111,"9,9,9,9,9","6,7,3,2,5","3,2,6,7,4",60,8.2242,60,4.408,42,2,,,,0,stay,Female,36
3,16,,45,0.375,0,1.7,0.377777778,"9,9,9,9,9","4,2,3,2,6","5,7,6,7,3",40,5.1964,40,3.7263,22,2,,,,0,stay,Female,36
3,17,,5,0.25,0,1.6,0.2,"1,1,1,1,1","0,0,1,0,0","1,1,0,1,1",10,5.9848,20,5.3546,27,1,,,,0.5882352941176471,compromise,Female,36
3,18,,5,0.375,1,1.8,0.4,"1,1,1,1,1","1,1,0,0,0","0,0,1,1,1",40,3.3864,40,7.8534,42,1,,,,0,stay,Female,36
3,19,,45,0.5,0,1.9,0.511111111,"9,9,9,9,9","5,4,5,5,4","4,5,4,4,5",60,6.5009,55,4.1392,44,1,,,,0.3125,compromise,Female,36
3,20,,5,0.75,0,1.6,0.8,"1,1,1,1,1","1,1,0,1,1","0,0,1,0,0",80,5.13,80,2.9307,65,2,,,,0,stay,Female,36
3,21,,45,0.125,1,2,0.133333333,"9,9,9,9,9","0,2,1,2,1","9,7,8,7,8",60,2.7315,60,2.5093,60,2,,,,NA,NA,Female,36
3,22,,45,0.5,0,2,0.511111111,"9,9,9,9,9","4,5,6,4,4","5,4,3,5,5",88,3.5029,88,2.3281,72,3,,,,0,stay,Female,36
3,23,,45,0.25,0,1.6,0.244444444,"9,9,9,9,9","4,2,2,2,1","5,7,7,7,8",22,7.1507,22,3.5937,37,2,,,,0,stay,Female,36
3,24,,45,0.25,1,1.9,0.244444444,"9,9,9,9,9","2,0,2,5,2","7,9,7,4,7",22,2.5024,22,4.5444,20,2,,,,0,stay,Female,36
3,25,,45,0,1,1.9,0,"9,9,9,9,9","0,0,0,0,0","9,9,9,9,9",0,2.1202,0,2.1036,0,3,,,,NA,NA,Female,36
3,26,,45,0.625,0,1.8,0.622222222,"9,9,9,9,9","4,5,6,8,5","5,4,3,1,4",48,8.0837,56,5.027,66,3,,,,0.4444444444444444,compromise,Female,36
3,27,,45,0.75,0,1.6,0.755555556,"9,9,9,9,9","8,8,6,6,6","1,1,3,3,3",67,6.851,73,3.505,83,2,,,,0.375,compromise,Female,36
3,28,,5,0.375,0,1.9,0.4,"1,1,1,1,1","0,0,1,1,0","1,1,0,0,1",20,2.1652,20,2.6251,37,3,,,,0,stay,Female,36
3,29,,5,0.5,0,1.5,0.6,"1,1,1,1,1","1,0,0,1,1","0,1,1,0,0",60,2.4493,60,2.1948,42,2,,,,0,stay,Female,36
3,30,,5,0.125,0,1.5,0.2,"1,1,1,1,1","0,0,0,1,0","1,1,1,0,1",20,3.0034,20,5.3478,2,1,,,,0,stay,Female,36
3,31,,45,0.375,0,1.5,0.377777778,"9,9,9,9,9","2,3,2,6,4","7,6,7,3,5",34,5.0851,34,2.0092,50,3,,,,0,stay,Female,36
3,32,,5,0.625,1,1.5,0.6,"1,1,1,1,1","0,1,0,1,1","1,0,1,0,0",60,7.0007,60,5.7544,4,1,,,,0,stay,Female,36
3,33,,5,0.75,0,1.5,0.8,"1,1,1,1,1","0,1,1,1,1","1,0,0,0,0",80,2.8522,80,7.6368,62,1,,,,0,stay,Female,36
3,34,,5,0.625,0,2,0.6,"1,1,1,1,1","1,0,1,1,0","0,1,0,0,1",80,5.2801,80,1.9605,62,2,,,,0,stay,Female,36
3,35,,45,0.875,1,1.6,0.866666667,"9,9,9,9,9","6,9,9,8,7","3,0,0,1,2",75,3.8974,75,2.3979,73,2,,,,0,stay,Female,36
3,36,,5,0.25,0,1.9,0.2,"1,1,1,1,1","1,0,0,0,0","0,1,1,1,1",80,6.3809,80,1.7456,65,2,,,,0,stay,Female,36
3,37,,45,0.25,0,1.8,0.244444444,"9,9,9,9,9","3,1,1,0,6","6,8,8,9,3",22,5.0807,22,4.8464,37,1,,,,0,stay,Female,36
3,38,,5,0.625,0,2,0.6,"1,1,1,1,1","1,1,1,0,0","0,0,0,1,1",60,3.3609,60,3.1649,78,3,,,,0,stay,Female,36
3,39,,45,0.125,0,1.7,0.133333333,"9,9,9,9,9","1,1,1,0,3","8,8,8,9,6",36,8.8739,36,2.3773,20,1,,,,0,stay,Female,36
3,40,,5,0.5,1,1.8,0.6,"1,1,1,1,1","0,0,1,1,1","1,1,0,0,0",60,3.1489,60,3.0555,3,1,,,,0,stay,Female,36
3,41,,45,1,1,2,1,"9,9,9,9,9","9,9,9,9,9","0,0,0,0,0",100,7.3166,100,4.3777,98,3,,,,0,stay,Female,36
3,42,,45,0.25,0,1.9,0.244444444,"9,9,9,9,9","1,2,3,4,1","8,7,6,5,8",33,5.3471,30,5.1472,15,3,,,,0.16666666666666666,compromise,Female,36
3,43,,5,1,1,1.8,1,"1,1,1,1,1","1,1,1,1,1","0,0,0,0,0",100,1.4661,100,3.1764,100,3,,,,NA,NA,Female,36
3,44,,5,0.5,0,1.9,0.6,"1,1,1,1,1","1,0,1,0,1","0,1,0,1,0",60,3.9355,60,1.8947,44,1,,,,0,stay,Female,36
3,45,,45,0.75,0,1.9,0.755555556,"9,9,9,9,9","8,6,6,7,7","1,3,3,2,2",75,5.7178,70,4.594,60,3,,,,0.3333333333333333,compromise,Female,36
3,46,,5,0,1,1.8,0,"1,1,1,1,1","0,0,0,0,0","1,1,1,1,1",0,1.3451,0,1.1267,0,3,,,,NA,NA,Female,36
3,47,,45,0.125,0,1.7,0.133333333,"9,9,9,9,9","1,1,0,1,3","8,8,9,8,6",20,8.0125,15,6.295,2,2,,,,0.2777777777777778,compromise,Female,36
3,48,,5,0.875,0,1.6,0.8,"1,1,1,1,1","1,0,1,1,1","0,1,0,0,0",80,4.1435,80,2.4483,97,2,,,,0,stay,Female,36
3,49,,45,0.625,0,1.6,0.622222222,"9,9,9,9,9","8,5,6,4,5","1,4,3,5,4",56,6.1135,60,2.8979,73,2,,,,0.23529411764705882,compromise,Female,36
3,50,,5,0.875,0,1.6,0.8,"1,1,1,1,1","1,1,1,0,1","0,0,0,1,0",80,1.4158,80,2.1985,97,1,,,,0,stay,Female,36
3,51,,5,0,1,1.5,0,"1,1,1,1,1","0,0,0,0,0","1,1,1,1,1",0,1.4165,0,1.3942,1,3,,,,0,stay,Female,36
3,52,,45,0.875,0,1.5,0.866666667,"9,9,9,9,9","7,8,7,8,9","2,1,2,1,0",85,7.7495,85,2.6726,100,3,,,,0,stay,Female,36
3,53,,5,0.625,0,1.6,0.6,"1,1,1,1,1","0,0,1,1,1","1,1,0,0,0",60,3.2864,60,2.5106,75,1,,,,0,stay,Female,36
3,54,,45,0.75,0,1.8,0.755555556,"9,9,9,9,9","8,5,6,8,7","1,4,3,1,2",90,2.2319,85,5.0468,72,1,,,,0.2777777777777778,compromise,Female,36
4,1,,45,0.25,1,1.6,0.244444444,"9,9,9,9,9","1,4,2,0,4","8,5,7,9,5",20,4.676,20,2.3776,18,3,,,,0,stay,Female,45
4,2,,5,0.5,0,1.5,0.6,"1,1,1,1,1","1,1,1,0,0","0,0,0,1,1",40,6.7563,40,2.9324,56,1,,,,0,stay,Female,45
4,3,,45,0.25,0,2,0.244444444,"9,9,9,9,9","2,1,3,3,2","7,8,6,6,7",15,3.5806,15,2.8455,31,2,,,,0,stay,Female,45
4,4,,45,0.375,0,1.7,0.377777778,"9,9,9,9,9","4,2,5,3,3","5,7,4,6,6",25,4.997,28,3.6951,40,2,,,,0.2,compromise,Female,45
4,5,,5,0.625,0,1.6,0.6,"1,1,1,1,1","1,1,0,0,1","0,0,1,1,0",60,7.3132,65,2.3821,75,3,,,,0.3333333333333333,compromise,Female,45
4,6,,5,0.25,0,1.6,0.2,"1,1,1,1,1","1,0,0,0,0","0,1,1,1,1",20,4.7795,20,1.4793,35,2,,,,0,stay,Female,45
4,7,,5,0.5,0,1.9,0.6,"1,1,1,1,1","0,1,0,1,1","1,0,1,0,0",60,3.0809,60,2.3789,45,2,,,,0,stay,Female,45
4,8,,45,0.25,0,1.8,0.244444444,"9,9,9,9,9","3,2,1,2,3","6,7,8,7,6",40,4.2973,35,3.3621,25,1,,,,0.3333333333333333,compromise,Female,45
4,9,,45,0.5,0,1.6,0.511111111,"9,9,9,9,9","5,4,4,5,5","4,5,5,4,4",50,3.5303,55,5.0778,68,3,,,,0.2777777777777778,compromise,Female,45
4,10,,5,0.625,0,1.7,0.6,"1,1,1,1,1","1,1,1,0,0","0,0,0,1,1",60,2.2933,60,2.312,75,2,,,,0,stay,Female,45
4,11,,5,0.625,0,1.7,0.6,"1,1,1,1,1","1,1,0,1,0","0,0,1,0,1",60,2.3647,60,1.4959,75,1,,,,0,stay,Female,45
4,12,,5,0.875,0,1.5,0.8,"1,1,1,1,1","1,0,1,1,1","0,1,0,0,0",80,1.7642,80,1.6792,98,3,,,,0,stay,Female,45
4,13,,5,0.375,0,2,0.4,"1,1,1,1,1","1,0,0,0,1","0,1,1,1,0",40,4.5122,40,1.6977,25,3,,,,0,stay,Female,45
4,14,,45,0.125,0,1.8,0.133333333,"9,9,9,9,9","2,0,0,2,2","7,9,9,7,7",10,5.163,12,4.0656,27,3,,,,0.11764705882352941,compromise,Female,45
4,15,,5,0.125,0,1.5,0.2,"1,1,1,1,1","0,0,0,0,1","1,1,1,1,0",20,2.2639,20,1.9628,5,2,,,,0,stay,Female,45
4,16,,45,0.125,0,1.9,0.133333333,"9,9,9,9,9","0,2,3,0,1","9,7,6,9,8",10,5.1304,10,1.4789,25,1,,,,0,stay,Female,45
4,17,,5,0.875,0,1.6,0.8,"1,1,1,1,1","1,1,0,1,1","0,0,1,0,0",80,4.0962,80,2.1622,97,2,,,,0,stay,Female,45
4,18,,5,0.5,0,1.6,0.6,"1,1,1,1,1","0,1,0,1,1","1,0,1,0,0",60,2.3309,60,2.2953,43,3,,,,0,stay,Female,45
4,19,,5,0.25,0,1.8,0.2,"1,1,1,1,1","0,0,0,1,0","1,1,1,0,1",20,1.9808,20,2.4453,35,3,,,,0,stay,Female,45
4,20,,5,0.125,0,1.5,0.2,"1,1,1,1,1","0,0,0,0,1","1,1,1,1,0",20,2.198,20,1.4463,2,3,,,,0,stay,Female,45
4,21,,5,0.25,0,1.7,0.2,"1,1,1,1,1","0,0,0,0,1","1,1,1,1,0",20,1.1185,20,1.4934,37,1,,,,0,stay,Female,45
4,22,,45,0.875,0,1.6,0.866666667,"9,9,9,9,9","6,8,8,8,9","3,1,1,1,0",90,6.5462,90,1.8325,75,1,,,,0,stay,Female,45
4,23,,45,0,1,2,0,"9,9,9,9,9","0,0,0,0,0","9,9,9,9,9",0,5.08,0,1.3665,0,3,,,,NA,NA,Female,45
4,24,,45,0.5,0,2,0.511111111,"9,9,9,9,9","6,2,6,5,4","3,7,3,4,5",35,7.446,38,3.8116,50,1,,,,0.2,compromise,Female,45
4,25,,5,1,1,1.5,1,"1,1,1,1,1","1,1,1,1,1","0,0,0,0,0",100,1.918,100,1.8599,100,3,,,,NA,NA,Female,45
4,26,,5,0.375,0,1.8,0.4,"1,1,1,1,1","1,1,0,0,0","0,0,1,1,1",40,2.4678,40,2.0755,22,1,,,,0,stay,Female,45
4,27,,45,0.875,1,2,0.866666667,"9,9,9,9,9","7,8,8,9,7","2,1,1,0,2",90,5.4803,92,2.7112,20,1,,,,-0.028571429,stay,Female,45
4,28,,5,0.75,0,2,0.8,"1,1,1,1,1","1,1,1,0,1","0,0,0,1,0",80,1.9314,80,2.5118,62,1,,,,0,stay,Female,45
4,29,,5,0.5,1,1.8,0.6,"1,1,1,1,1","0,1,1,0,1","1,0,0,1,0",60,1.3978,60,3.3122,16,1,,,,0,stay,Female,45
4,30,,45,0.625,0,1.5,0.622222222,"9,9,9,9,9","7,8,4,5,4","2,1,5,4,5",60,5.2965,65,2.1127,75,2,,,,0.3333333333333333,compromise,Female,45
4,31,,45,0.125,1,1.5,0.133333333,"9,9,9,9,9","1,1,2,1,1","8,8,7,8,8",10,5.1973,10,3.5288,61,1,,,,0,stay,Female,45
4,32,,5,0,1,1.8,0,"1,1,1,1,1","0,0,0,0,0","1,1,1,1,1",0,1.3309,0,1.184,0,3,,,,NA,NA,Female,45
4,33,,45,0.125,0,1.9,0.133333333,"9,9,9,9,9","0,2,3,0,1","9,7,6,9,8",8,5.2461,8,2.1122,25,2,,,,0,stay,Female,45
4,34,,5,0.75,0,2,0.8,"1,1,1,1,1","1,1,1,1,0","0,0,0,0,1",80,2.277,80,2.8955,65,2,,,,0,stay,Female,45
4,35,,45,0.625,0,1.8,0.622222222,"9,9,9,9,9","5,4,5,7,7","4,5,4,2,2",80,2.6982,78,2.7781,62,3,,,,0.1111111111111111,compromise,Female,45
4,36,,45,0.75,0,1.7,0.755555556,"9,9,9,9,9","5,7,8,8,6","4,2,1,1,3",80,5.4123,82,2.4596,65,3,,,,-0.133333333,stay,Female,45
4,37,,45,0.375,0,1.9,0.377777778,"9,9,9,9,9","5,6,0,5,1","4,3,9,4,8",40,3.2143,40,2.2124,24,3,,,,0,stay,Female,45
4,38,,45,0.75,1,1.7,0.755555556,"9,9,9,9,9","6,8,7,5,8","3,1,2,4,1",80,2.6805,80,2.2127,81,3,,,,0,stay,Female,45
4,39,,45,0.25,0,1.6,0.244444444,"9,9,9,9,9","2,1,3,4,1","7,8,6,5,8",20,5.7303,20,2.1958,37,3,,,,0,stay,Female,45
4,40,,5,0,1,1.9,0,"1,1,1,1,1","0,0,0,0,0","1,1,1,1,1",0,1.3484,0,1.0787,0,3,,,,NA,NA,Female,45
4,41,,45,0.5,0,1.7,0.511111111,"9,9,9,9,9","5,5,5,4,4","4,4,4,5,5",60,6.5965,60,3.1121,42,2,,,,0,stay,Female,45
4,42,,45,1,1,1.8,1,"9,9,9,9,9","9,9,9,9,9","0,0,0,0,0",100,1.8012,100,1.1431,100,3,,,,NA,NA,Female,45
4,43,,5,0.125,0,1.8,0.2,"1,1,1,1,1","0,1,0,0,0","1,0,1,1,1",20,1.285,20,0.8099,4,1,,,,0,stay,Female,45
4,44,,5,0.375,0,1.6,0.4,"1,1,1,1,1","0,0,1,0,1","1,1,0,1,0",40,1.7648,40,4.4285,25,2,,,,0,stay,Female,45
4,45,,45,0.875,0,1.6,0.866666667,"9,9,9,9,9","8,8,7,9,7","1,1,2,0,2",85,3.4309,88,5.7489,100,2,,,,0.2,compromise,Female,45
4,46,,45,0.875,0,1.5,0.866666667,"9,9,9,9,9","8,7,8,9,7","1,2,1,0,2",90,1.5651,88,3.7291,72,3,,,,0.1111111111111111,compromise,Female,45
4,47,,45,0.75,0,1.8,0.755555556,"9,9,9,9,9","5,6,8,8,7","4,3,1,1,2",80,4.898,85,2.5998,63,1,,,,-0.294117647,stay,Female,45
4,48,,5,0.875,0,2,0.8,"1,1,1,1,1","1,1,1,1,0","0,0,0,0,1",80,2.2356,80,1.3435,97,1,,,,0,stay,Female,45
4,49,,5,0.75,0,1.6,0.8,"1,1,1,1,1","1,0,1,1,1","0,1,0,0,0",80,2.4183,80,0.8767,62,3,,,,0,stay,Female,45
4,50,,45,0.375,0,1.8,0.377777778,"9,9,9,9,9","5,4,1,3,4","4,5,8,6,5",25,4.9632,25,3.1499,40,1,,,,0,stay,Female,45
4,51,,45,0.625,0,1.5,0.622222222,"9,9,9,9,9","6,7,7,3,5","3,2,2,6,4",75,3.064,75,2.2125,60,1,,,,0,stay,Female,45
4,52,,45,0.75,0,1.8,0.755555556,"9,9,9,9,9","8,7,7,7,5","1,2,2,2,4",88,4.8177,88,1.7432,70,2,,,,0,stay,Female,45
4,53,,5,0.625,1,1.9,0.6,"1,1,1,1,1","1,1,0,1,0","0,0,1,0,1",60,2.9973,60,1.0303,16,1,,,,0,stay,Female,45
4,54,,5,0.375,1,1.9,0.4,"1,1,1,1,1","1,0,0,0,1","0,1,1,1,0",40,2.0139,40,0.8961,40,1,,,,NA,NA,Female,45
5,1,,5,0,1,1.9,0,"1,1,1,1,1","0,0,0,0,0","1,1,1,1,1",0,3.9136,0,2.7954,0,3,,,,NA,NA,Male,24
5,2,,45,0.125,0,1.5,0.133333333,"9,9,9,9,9","2,1,1,1,1","7,8,8,8,8",18,3.9526,15,4.4605,0,2,,,,0.16666666666666666,compromise,Male,24
5,3,,5,0.125,0,1.9,0.2,"1,1,1,1,1","0,0,0,1,0","1,1,1,0,1",20,3.7489,15,2.4157,2,1,,,,0.2777777777777778,compromise,Male,24
5,4,,45,0.875,0,1.7,0.866666667,"9,9,9,9,9","8,6,8,8,9","1,3,1,1,0",90,3.0497,85,4.3605,74,1,,,,0.3125,compromise,Male,24
5,5,,45,0.625,0,1.8,0.622222222,"9,9,9,9,9","7,5,8,3,5","2,4,1,6,4",70,2.2681,65,3.8939,55,3,,,,0.3333333333333333,compromise,Male,24
5,6,,45,0.375,0,1.7,0.377777778,"9,9,9,9,9","3,1,4,4,5","6,8,5,5,4",25,2.183,30,2.8121,40,1,,,,0.3333333333333333,compromise,Male,24
5,7,,45,0.25,0,1.7,0.244444444,"9,9,9,9,9","2,1,1,2,5","7,8,8,7,4",15,1.433,18,2.0263,32,1,,,,0.17647058823529413,compromise,Male,24
5,8,,45,0.875,1,2,0.866666667,"9,9,9,9,9","9,5,8,9,8","0,4,1,0,1",85,2.2825,85,4.5454,32,1,,,,0,stay,Male,24
5,9,,45,0.375,0,1.9,0.377777778,"9,9,9,9,9","5,1,0,5,6","4,8,9,4,3",18,3.249,25,2.863,33,2,,,,0.4666666666666667,compromise,Male,24
5,10,,5,0.25,0,1.9,0.2,"1,1,1,1,1","0,0,0,1,0","1,1,1,0,1",20,3.6827,20,2.3794,35,3,,,,0,stay,Male,24
5,11,,45,0.75,0,1.8,0.755555556,"9,9,9,9,9","6,8,6,8,6","3,1,3,1,3",80,3.3995,75,2.2293,65,3,,,,0.3333333333333333,compromise,Male,24
5,12,,5,1,1,1.7,1,"1,1,1,1,1","1,1,1,1,1","0,0,0,0,0",100,1.4996,100,2.1796,100,3,,,,NA,NA,Male,24
5,13,,5,0.875,0,1.9,0.8,"1,1,1,1,1","0,1,1,1,1","1,0,0,0,0",100,1.5659,95,4.1285,82,1,,,,0.2777777777777778,compromise,Male,24
5,14,,45,0.125,0,1.9,0.133333333,"9,9,9,9,9","0,0,1,2,3","9,9,8,7,6",15,5.6991,15,3.5628,0,3,,,,0,stay,Male,24
5,15,,45,1,1,1.8,1,"9,9,9,9,9","9,9,9,9,9","0,0,0,0,0",100,1.3817,100,4.9961,100,3,,,,NA,NA,Male,24
5,16,,45,0.5,0,1.7,0.511111111,"9,9,9,9,9","5,4,6,4,4","4,5,3,5,5",55,2.333,50,1.6962,40,1,,,,0.3333333333333333,compromise,Male,24
5,17,,45,0.125,0,1.5,0.133333333,"9,9,9,9,9","1,1,0,3,1","8,8,9,6,8",18,6.0158,12,1.8452,2,1,,,,0.375,compromise,Male,24
5,18,,5,0.375,0,1.7,0.4,"1,1,1,1,1","0,0,1,1,0","1,1,0,0,1",45,2.3852,40,2.2609,30,2,,,,0.3333333333333333,compromise,Male,24
5,19,,45,0.5,0,1.5,0.511111111,"9,9,9,9,9","6,5,3,4,5","3,4,6,5,4",45,3.1163,50,2.1121,60,2,,,,0.3333333333333333,compromise,Male,24
5,20,,5,0.875,0,1.7,0.8,"1,1,1,1,1","0,1,1,1,1","1,0,0,0,0",75,1.7994,80,2.3299,90,2,,,,0.3333333333333333,compromise,Male,24
5,21,,5,0.125,0,1.7,0.2,"1,1,1,1,1","0,0,0,1,0","1,1,1,0,1",15,1.6686,15,2.8446,0,3,,,,0,stay,Male,24
5,22,,45,0.75,0,2,0.755555556,"9,9,9,9,9","6,8,7,7,6","3,1,2,2,3",78,2.1322,75,1.8629,60,1,,,,0.16666666666666666,compromise,Male,24
5,23,,5,0.75,0,1.7,0.8,"1,1,1,1,1","1,1,0,1,1","0,0,1,0,0",75,2.1162,85,3.1817,92,1,,,,0.5882352941176471,compromise,Male,24
5,24,,5,0.875,0,2,0.8,"1,1,1,1,1","1,1,0,1,1","0,0,1,0,0",85,1.5155,85,2.5629,100,3,,,,0,stay,Male,24
5,25,,5,0.5,0,1.8,0.6,"1,1,1,1,1","0,1,0,1,1","1,0,1,0,0",65,3.3823,65,1.715,50,1,,,,0,stay,Male,24
5,26,,45,0.25,1,2,0.244444444,"9,9,9,9,9","0,6,2,2,1","9,3,7,7,8",30,3.9185,30,6.8471,72,1,,,,0,stay,Male,24
5,27,,5,0.25,0,1.9,0.2,"1,1,1,1,1","0,0,0,1,0","1,1,1,0,1",15,0.835,20,1.5608,30,2,,,,0.3333333333333333,compromise,Male,24
5,28,,45,0.25,0,1.6,0.244444444,"9,9,9,9,9","2,1,2,4,2","7,8,7,5,7",22,2.8828,24,2.0795,40,3,,,,0.1111111111111111,compromise,Male,24
5,29,,5,0.625,0,1.5,0.6,"1,1,1,1,1","0,0,1,1,1","1,1,0,0,0",60,2.2161,65,2.1626,75,1,,,,0.3333333333333333,compromise,Male,24
5,30,,5,0.75,0,1.7,0.8,"1,1,1,1,1","1,1,1,0,1","0,0,0,1,0",85,2.6501,75,4.5107,69,3,,,,0.625,compromise,Male,24
5,31,,5,0.625,0,1.8,0.6,"1,1,1,1,1","0,1,1,0,1","1,0,0,1,0",60,1.9162,65,5.0619,76,2,,,,0.3125,compromise,Male,24
5,32,,45,0.5,0,1.9,0.511111111,"9,9,9,9,9","5,5,7,4,2","4,4,2,5,7",70,2.2155,65,3.7176,55,3,,,,0.3333333333333333,compromise,Male,24
5,33,,5,0.5,1,2,0.6,"1,1,1,1,1","0,1,0,1,1","1,0,1,0,0",55,3.9653,55,2.0961,57,3,,,,0,stay,Male,24
5,34,,45,0.75,1,1.7,0.755555556,"9,9,9,9,9","4,6,9,9,6","5,3,0,0,3",75,2.6165,75,2.4795,74,3,,,,0,stay,Male,24
5,35,,5,0.625,1,1.8,0.6,"1,1,1,1,1","0,1,0,1,1","1,0,1,0,0",55,2.3156,55,1.8118,53,3,,,,0,stay,Male,24
5,36,,5,0.5,0,2,0.6,"1,1,1,1,1","1,1,0,0,1","0,0,1,1,0",55,1.2497,50,2.8963,40,3,,,,0.3333333333333333,compromise,Male,24
5,37,,45,0.25,0,1.6,0.244444444,"9,9,9,9,9","1,5,2,0,3","8,4,7,9,6",25,5.9661,30,1.4457,41,2,,,,0.3125,compromise,Male,24
5,38,,5,0.625,0,1.5,0.6,"1,1,1,1,1","1,1,0,1,0","0,0,1,0,1",60,1.866,70,3.0291,75,3,,,,0.6666666666666666,compromise,Male,24
5,39,,45,0.875,0,1.5,0.866666667,"9,9,9,9,9","8,6,8,8,9","1,3,1,1,0",80,0.7162,95,2.1959,97,2,,,,0.8823529411764706,compromise,Male,24
5,40,,5,0.5,0,1.6,0.6,"1,1,1,1,1","1,0,0,1,1","0,1,1,0,0",60,0.7331,50,1.4632,45,2,,,,0.6666666666666666,compromise,Male,24
5,41,,5,0,1,1.5,0,"1,1,1,1,1","0,0,0,0,0","1,1,1,1,1",0,1.1351,0,1.9281,0,3,,,,NA,NA,Male,24
5,42,,5,0.75,0,1.7,0.8,"1,1,1,1,1","1,1,1,0,1","0,0,0,1,0",80,1.0661,75,1.9297,65,2,,,,0.3333333333333333,compromise,Male,24
5,43,,5,0.375,0,1.8,0.4,"1,1,1,1,1","1,0,0,1,0","0,1,1,0,1",40,1.2162,30,1.8627,24,3,,,,0.625,compromise,Male,24
5,44,,5,0.25,0,2,0.2,"1,1,1,1,1","0,0,0,1,0","1,1,1,0,1",40,2.7493,35,3.3792,25,1,,,,0.3333333333333333,compromise,Male,24
5,45,,45,0.625,0,1.7,0.622222222,"9,9,9,9,9","5,4,5,8,6","4,5,4,1,3",75,0.9014,65,2.0619,58,2,,,,0.5882352941176471,compromise,Male,24
5,46,,45,0.375,0,1.7,0.377777778,"9,9,9,9,9","3,2,4,3,5","6,7,5,6,4",25,6.8989,40,1.6129,40,3,,,,1,copy,Male,24
5,47,,45,0.875,0,2,0.866666667,"9,9,9,9,9","8,8,8,7,8","1,1,1,2,1",91,3.215,82,4.196,74,3,,,,0.5294117647058824,compromise,Male,24
5,48,,45,0.125,1,1.7,0.133333333,"9,9,9,9,9","1,3,0,1,1","8,6,9,8,8",85,4.7025,20,6.6754,16,1,,,,0.9420289855072463,compromise,Male,24
5,49,,45,0,1,1.7,0,"9,9,9,9,9","0,0,0,0,0","9,9,9,9,9",0,0.537,0,0.5932,0,3,,,,NA,NA,Male,24
5,50,,5,0.375,1,1.6,0.4,"1,1,1,1,1","0,0,1,0,1","1,1,0,1,0",35,1.1995,40,4.5796,87,1,,,,0.096153846,compromise,Male,24
5,51,,5,0.125,0,1.5,0.2,"1,1,1,1,1","1,0,0,0,0","0,1,1,1,1",20,0.8161,15,2.4797,4,2,,,,0.3125,compromise,Male,24
5,52,,5,0.375,0,1.5,0.4,"1,1,1,1,1","1,0,0,0,1","0,1,1,1,0",20,1.0327,22,3.2824,38,1,,,,0.1111111111111111,compromise,Male,24
5,53,,45,0.625,0,1.5,0.622222222,"9,9,9,9,9","6,4,4,5,9","3,5,5,4,0",60,6.499,65,4.3959,77,1,,,,0.29411764705882354,compromise,Male,24
5,54,,45,0.75,0,1.8,0.755555556,"9,9,9,9,9","7,6,4,9,8","2,3,5,0,1",60,6.4323,70,1.3992,75,2,,,,0.6666666666666666,compromise,Male,24
6,1,,5,0.625,0,1.5,0.6,"1,1,1,1,1","1,1,0,0,1","0,0,1,1,0",60,2.6959,60,2.2874,76,2,,,,0,stay,Male,20
6,2,,45,0.125,0,1.8,0.133333333,"9,9,9,9,9","0,2,2,1,1","9,7,7,8,8",15,2.6898,12,4.2486,0,2,,,,0.2,compromise,Male,20
6,3,,5,0.625,0,1.5,0.6,"1,1,1,1,1","0,1,1,1,0","1,0,0,0,1",60,1.8431,65,7.3118,75,3,,,,0.3333333333333333,compromise,Male,20
6,4,,5,0,1,2,0,"1,1,1,1,1","0,0,0,0,0","1,1,1,1,1",2,3.3569,1,5.9651,0,3,,,,0.5,compromise,Male,20
6,5,,5,0.625,0,1.9,0.6,"1,1,1,1,1","1,0,0,1,1","0,1,1,0,0",60,1.5915,60,3.6772,75,1,,,,0,stay,Male,20
6,6,,5,0.125,0,1.6,0.2,"1,1,1,1,1","0,0,0,0,1","1,1,1,1,0",20,3.3237,15,4.3578,5,2,,,,0.3333333333333333,compromise,Male,20
6,7,,5,0.5,1,1.8,0.6,"1,1,1,1,1","1,0,1,0,1","0,1,0,1,0",60,2.1625,60,2.3157,60,2,,,,NA,NA,Male,20
6,8,,5,1,1,1.6,1,"1,1,1,1,1","1,1,1,1,1","0,0,0,0,0",98,1.5502,99,1.8909,100,3,,,,0.5,compromise,Male,20
6,9,,45,0.5,0,1.5,0.511111111,"9,9,9,9,9","4,3,7,4,5","5,6,2,5,4",58,3.6981,55,2.3301,40,2,,,,0.16666666666666666,compromise,Male,20
6,10,,45,0.125,0,1.9,0.133333333,"9,9,9,9,9","2,1,2,0,1","7,8,7,9,8",10,2.238,15,5.7911,27,3,,,,0.29411764705882354,compromise,Male,20
6,11,,45,0.125,0,2,0.133333333,"9,9,9,9,9","2,3,1,0,0","7,6,8,9,9",10,2.5723,10,1.8486,28,1,,,,0,stay,Male,20
6,12,,45,0.625,0,1.5,0.622222222,"9,9,9,9,9","6,3,6,8,5","3,6,3,1,4",75,1.9182,75,2.329,60,1,,,,0,stay,Male,20
6,13,,45,0.25,0,1.9,0.244444444,"9,9,9,9,9","2,2,4,2,1","7,7,5,7,8",27,3.1143,25,5.3942,9,2,,,,0.1111111111111111,compromise,Male,20
6,14,,45,0.25,0,1.6,0.244444444,"9,9,9,9,9","3,1,0,3,4","6,8,9,6,5",30,3.7816,25,2.766,15,1,,,,0.3333333333333333,compromise,Male,20
6,15,,5,0.5,0,1.8,0.6,"1,1,1,1,1","1,0,1,0,1","0,1,0,1,0",60,1.1608,60,3.3999,44,1,,,,0,stay,Male,20
6,16,,45,0.5,0,1.8,0.511111111,"9,9,9,9,9","5,4,5,5,4","4,5,4,4,5",55,1.6889,55,2.9893,38,1,,,,0,stay,Male,20
6,17,,45,0.25,0,1.6,0.244444444,"9,9,9,9,9","4,0,1,4,2","5,9,8,5,7",20,2.6276,25,1.8907,35,3,,,,0.3333333333333333,compromise,Male,20
6,18,,5,0.75,0,1.5,0.8,"1,1,1,1,1","1,1,0,1,1","0,0,1,0,0",80,2.0297,70,5.8534,65,2,,,,0.6666666666666666,compromise,Male,20
6,19,,5,0.375,0,1.5,0.4,"1,1,1,1,1","1,1,0,0,0","0,0,1,1,1",40,1.6541,40,4.6852,24,1,,,,0,stay,Male,20
6,20,,5,0.125,0,1.8,0.2,"1,1,1,1,1","0,0,1,0,0","1,1,0,1,1",20,1.6962,10,4.3098,5,3,,,,0.6666666666666666,compromise,Male,20
6,21,,5,0.875,0,2,0.8,"1,1,1,1,1","1,1,1,1,0","0,0,0,0,1",80,1.2718,89,4.7828,95,2,,,,0.6,compromise,Male,20
6,22,,5,0,1,2,0,"1,1,1,1,1","0,0,0,0,0","1,1,1,1,1",2,7.2295,1,3.046,0,3,,,,0.5,compromise,Male,20
6,23,,45,0.625,0,1.5,0.622222222,"9,9,9,9,9","3,6,6,7,6","6,3,3,2,3",70,2.0713,65,2.5448,53,3,,,,0.29411764705882354,compromise,Male,20
6,24,,45,0.375,0,1.9,0.377777778,"9,9,9,9,9","4,3,3,3,4","5,6,6,6,5",35,1.6545,35,2.1559,53,3,,,,0,stay,Male,20
6,25,,45,0.25,1,1.8,0.244444444,"9,9,9,9,9","4,3,0,1,3","5,6,9,8,6",25,1.3762,25,2.8169,95,1,,,,0,stay,Male,20
6,26,,45,0.875,0,1.9,0.866666667,"9,9,9,9,9","7,9,7,8,8","2,0,2,1,1",90,0.6321,90,1.2939,74,1,,,,0,stay,Male,20
6,27,,45,0.875,0,1.7,0.866666667,"9,9,9,9,9","9,7,9,7,7","0,2,0,2,2",92,1.266,90,2.1404,75,2,,,,0.11764705882352941,compromise,Male,20
6,28,,45,0.875,0,1.8,0.866666667,"9,9,9,9,9","8,6,9,8,8","1,3,0,1,1",85,2.683,90,3.9,100,3,,,,0.3333333333333333,compromise,Male,20
6,29,,45,1,1,2,1,"9,9,9,9,9","9,9,9,9,9","0,0,0,0,0",99,0.5144,99,1.7452,98,3,,,,0,stay,Male,20
6,30,,5,0.5,0,1.7,0.6,"1,1,1,1,1","0,1,0,1,1","1,0,1,0,0",60,1.1549,50,2.823,45,2,,,,0.6666666666666666,compromise,Male,20
6,31,,45,0.375,0,1.5,0.377777778,"9,9,9,9,9","4,3,5,2,3","5,6,4,7,6",38,2.0581,40,3.0249,54,2,,,,0.125,compromise,Male,20
6,32,,5,0.5,0,1.5,0.6,"1,1,1,1,1","1,1,0,0,1","0,0,1,1,0",60,1.0149,50,2.6635,44,3,,,,0.625,compromise,Male,20
6,33,,45,0.75,0,1.6,0.755555556,"9,9,9,9,9","8,5,7,6,8","1,4,2,3,1",90,2.0295,85,4.1988,73,3,,,,0.29411764705882354,compromise,Male,20
6,34,,5,0.375,0,1.7,0.4,"1,1,1,1,1","1,0,1,0,0","0,1,0,1,1",40,1.4818,35,4.0657,25,2,,,,0.3333333333333333,compromise,Male,20
6,35,,45,0.625,0,1.5,0.622222222,"9,9,9,9,9","5,6,4,7,6","4,3,5,2,3",65,1.8696,60,6.048,49,2,,,,0.3125,compromise,Male,20
6,36,,5,0.75,0,2,0.8,"1,1,1,1,1","1,1,1,1,0","0,0,0,0,1",80,2.3774,80,1.8426,63,1,,,,0,stay,Male,20
6,37,,5,0.25,0,2,0.2,"1,1,1,1,1","0,0,0,1,0","1,1,1,0,1",20,3.0795,25,3.1559,35,2,,,,0.3333333333333333,compromise,Male,20
6,38,,45,0.375,0,1.8,0.377777778,"9,9,9,9,9","5,3,5,3,1","4,6,4,6,8",40,1.2235,40,1.9538,22,1,,,,0,stay,Male,20
6,39,,5,0.25,0,1.8,0.2,"1,1,1,1,1","0,0,1,0,0","1,1,0,1,1",20,1.8349,20,1.5855,35,1,,,,0,stay,Male,20
6,40,,45,0.5,0,1.6,0.511111111,"9,9,9,9,9","5,5,5,3,5","4,4,4,6,4",51,1.1478,49,2.2315,33,3,,,,0.1111111111111111,compromise,Male,20
6,41,,45,0.75,0,1.7,0.755555556,"9,9,9,9,9","6,6,8,7,7","3,3,1,2,2",85,1.2373,85,1.7804,70,2,,,,0,stay,Male,20
6,42,,5,0.375,1,1.8,0.4,"1,1,1,1,1","0,1,0,0,1","1,0,1,1,0",60,0.5641,60,2.5036,7,1,,,,0,stay,Male,20
6,43,,45,0.75,1,2,0.755555556,"9,9,9,9,9","8,6,6,6,8","1,3,3,3,1",90,1.2439,90,2.0303,89,1,,,,0,stay,Male,20
6,44,,45,0.875,1,1.9,0.866666667,"9,9,9,9,9","6,9,8,9,7","3,0,1,0,2",93,0.8347,93,2.3222,4,1,,,,0,stay,Male,20
6,45,,5,0.875,0,1.7,0.8,"1,1,1,1,1","1,1,1,1,0","0,0,0,0,1",80,1.2304,90,1.7091,96,3,,,,0.625,compromise,Male,20
6,46,,5,0.875,0,1.6,0.8,"1,1,1,1,1","1,1,1,1,0","0,0,0,0,1",80,0.5214,80,2.8852,97,1,,,,0,stay,Male,20
6,47,,5,0.25,0,1.7,0.2,"1,1,1,1,1","1,0,0,0,0","0,1,1,1,1",20,0.9454,30,3.8028,35,3,,,,0.6666666666666666,compromise,Male,20
6,48,,45,0,1,1.9,0,"9,9,9,9,9","0,0,0,0,0","9,9,9,9,9",0,1.0425,0,2.2952,1,3,,,,0,stay,Male,20
6,49,,5,0.375,0,1.8,0.4,"1,1,1,1,1","1,0,0,1,0","0,1,1,0,1",40,1.321,30,3.2125,23,3,,,,0.5882352941176471,compromise,Male,20
6,50,,5,0.75,0,1.9,0.8,"1,1,1,1,1","0,1,1,1,1","1,0,0,0,0",80,1.0564,75,9.2815,65,3,,,,0.3333333333333333,compromise,Male,20
6,51,,5,0.125,0,1.8,0.2,"1,1,1,1,1","0,0,0,0,1","1,1,1,1,0",20,1.0701,20,2.1065,5,1,,,,0,stay,Male,20
6,52,,5,0.625,1,1.8,0.6,"1,1,1,1,1","0,1,1,0,1","1,0,0,1,0",60,1.0988,60,1.3346,58,1,,,,0,stay,Male,20
6,53,,45,0.75,0,2,0.755555556,"9,9,9,9,9","6,7,8,6,7","3,2,1,3,2",87,1.0358,85,2.0854,71,1,,,,0.125,compromise,Male,20
6,54,,45,0.125,1,1.6,0.133333333,"9,9,9,9,9","1,2,0,1,2","8,7,9,8,7",10,0.9175,10,4.6433,60,1,,,,0,stay,Male,20
7,1,,5,0.75,0,1.7,0.8,"1,1,1,1,1","1,1,0,1,1","0,0,1,0,0",50,4.3,60,4.363,65,3,,,,0.6666666666666666,compromise,Male,30
7,2,,45,0.25,1,1.7,0.244444444,"9,9,9,9,9","2,2,2,3,2","7,7,7,6,7",30,5.067,30,3.911,30,3,,,,NA,NA,Male,30
7,3,,45,0.875,0,1.7,0.866666667,"9,9,9,9,9","8,7,6,9,9","1,2,3,0,0",70,5.866,70,3.18,86,1,,,,0,stay,Male,30
7,4,,5,0,1,1.9,0,"1,1,1,1,1","0,0,0,0,0","1,1,1,1,1",0,3.803,0,2.644,1,3,,,,0,stay,Male,30
7,5,,45,0.875,0,1.9,0.866666667,"9,9,9,9,9","8,7,8,9,7","1,2,1,0,2",30,3.682,35,2.879,46,2,,,,0.3125,compromise,Male,30
7,6,,45,0.25,0,1.6,0.244444444,"9,9,9,9,9","3,2,3,3,0","6,7,6,6,9",40,5.367,30,2.346,25,2,,,,0.6666666666666666,compromise,Male,30
7,7,,45,0.625,0,1.7,0.622222222,"9,9,9,9,9","6,6,7,5,4","3,3,2,4,5",70,3.317,65,5.148,55,1,,,,0.3333333333333333,compromise,Male,30
7,8,,5,1,1,1.6,1,"1,1,1,1,1","1,1,1,1,1","0,0,0,0,0",99,2.266,99,2.747,99,3,,,,NA,NA,Male,30
7,9,,5,0.25,0,1.5,0.2,"1,1,1,1,1","0,1,0,0,0","1,0,1,1,1",25,2.932,25,3.063,43,2,,,,0,stay,Male,30
7,10,,5,0.375,0,1.8,0.4,"1,1,1,1,1","1,1,0,0,0","0,0,1,1,1",10,2.483,10,1.88,25,3,,,,0,stay,Male,30
7,11,,45,0.375,0,1.9,0.377777778,"9,9,9,9,9","4,1,4,2,6","5,8,5,7,3",65,2.583,55,2.697,49,2,,,,0.625,compromise,Male,30
7,12,,45,0.75,0,1.7,0.755555556,"9,9,9,9,9","5,8,6,7,8","4,1,3,2,1",70,2.083,75,2.664,88,2,,,,0.2777777777777778,compromise,Male,30
7,13,,45,0.5,0,1.7,0.511111111,"9,9,9,9,9","5,1,6,5,6","4,8,3,4,3",75,2.9,65,3.096,59,3,,,,0.625,compromise,Male,30
7,14,,5,0.125,0,1.6,0.2,"1,1,1,1,1","1,0,0,0,0","0,1,1,1,1",10,2.283,25,2.896,28,1,,,,0.8333333333333334,compromise,Male,30
7,15,,5,0.125,0,1.7,0.2,"1,1,1,1,1","1,0,0,0,0","0,1,1,1,1",90,6.65,85,2.614,75,3,,,,0.3333333333333333,compromise,Male,30
7,16,,5,0.5,1,1.7,0.6,"1,1,1,1,1","0,1,1,0,1","1,0,0,1,0",50,1.333,60,3.612,3,1,,,,-0.212765957,stay,Male,30
7,17,,45,0.125,0,1.7,0.133333333,"9,9,9,9,9","1,1,2,1,1","8,8,7,8,8",30,3.599,15,3.18,12,2,,,,0.8333333333333334,compromise,Male,30
7,18,,5,0.375,0,1.9,0.4,"1,1,1,1,1","1,0,0,1,0","0,1,1,0,1",70,4.741,60,2.952,53,1,,,,0.5882352941176471,compromise,Male,30
7,19,,5,0.25,0,1.5,0.2,"1,1,1,1,1","0,0,1,0,0","1,1,0,1,1",20,4.966,20,2.596,35,3,,,,0,stay,Male,30
7,20,,5,0.5,0,1.9,0.6,"1,1,1,1,1","1,1,0,0,1","0,0,1,1,0",70,5.699,65,2.61,52,2,,,,0.2777777777777778,compromise,Male,30
7,21,,45,0.625,0,2,0.622222222,"9,9,9,9,9","6,7,4,6,5","3,2,5,3,4",75,2.033,70,2.446,60,2,,,,0.3333333333333333,compromise,Male,30
7,22,,5,0.125,0,1.5,0.2,"1,1,1,1,1","0,0,1,0,0","1,1,0,1,1",20,1.349,10,6.411,4,2,,,,0.625,compromise,Male,30
7,23,,45,0.625,0,1.5,0.622222222,"9,9,9,9,9","5,7,5,5,6","4,2,4,4,3",80,9.867,75,2.913,62,3,,,,0.2777777777777778,compromise,Male,30
7,24,,5,0.375,0,1.6,0.4,"1,1,1,1,1","0,1,1,0,0","1,0,0,1,1",10,3.167,10,2.196,26,2,,,,0,stay,Male,30
7,25,,45,0.125,1,1.5,0.133333333,"9,9,9,9,9","1,2,0,2,1","8,7,9,7,8",30,3.449,30,2.731,30,2,,,,NA,NA,Male,30
7,26,,5,0.5,0,1.7,0.6,"1,1,1,1,1","0,1,0,1,1","1,0,1,0,0",65,2.65,55,2.413,50,1,,,,0.6666666666666666,compromise,Male,30
7,27,,45,0.5,0,1.7,0.511111111,"9,9,9,9,9","3,5,6,6,3","6,4,3,3,6",65,1.516,60,2.68,50,2,,,,0.3333333333333333,compromise,Male,30
7,28,,5,0.875,0,1.8,0.8,"1,1,1,1,1","1,0,1,1,1","0,1,0,0,0",70,1.316,70,2.53,87,1,,,,0,stay,Male,30
7,29,,5,0.625,0,1.8,0.6,"1,1,1,1,1","1,1,0,0,1","0,0,1,1,0",60,1.299,65,2.663,76,2,,,,0.3125,compromise,Male,30
7,30,,45,0.5,0,2,0.511111111,"9,9,9,9,9","7,6,4,4,2","2,3,5,5,7",65,2.118,60,2.646,50,1,,,,0.3333333333333333,compromise,Male,30
7,31,,45,0.75,0,1.7,0.755555556,"9,9,9,9,9","4,7,8,9,6","5,2,1,0,3",80,0.952,80,1.943,65,3,,,,0,stay,Male,30
7,32,,45,0.25,0,1.5,0.244444444,"9,9,9,9,9","2,3,2,3,1","7,6,7,6,8",55,2.417,50,2.58,40,3,,,,0.3333333333333333,compromise,Male,30
7,33,,5,0.875,0,1.8,0.8,"1,1,1,1,1","1,1,0,1,1","0,0,1,0,0",20,5.383,25,2.314,36,2,,,,0.3125,compromise,Male,30
7,34,,45,0,1,1.7,0,"9,9,9,9,9","0,0,0,0,0","9,9,9,9,9",0,1.216,0,2.229,1,3,,,,0,stay,Male,30
7,35,,45,0.875,0,1.7,0.866666667,"9,9,9,9,9","8,7,8,9,7","1,2,1,0,2",89,1.683,86,3.296,74,3,,,,0.2,compromise,Male,30
7,36,,45,0.75,1,1.7,0.755555556,"9,9,9,9,9","8,6,7,6,7","1,3,2,3,2",70,4.983,70,5.997,21,1,,,,0,stay,Male,30
7,37,,45,0.125,0,1.9,0.133333333,"9,9,9,9,9","1,1,0,1,3","8,8,9,8,6",30,4.315,20,2.963,14,1,,,,0.625,compromise,Male,30
7,38,,5,0.25,0,1.6,0.2,"1,1,1,1,1","1,0,0,0,0","0,1,1,1,1",20,3.916,20,2.53,37,1,,,,0,stay,Male,30
7,39,,45,0.75,0,2,0.755555556,"9,9,9,9,9","7,6,7,6,8","2,3,2,3,1",80,2.482,65,3.513,62,1,,,,0.8333333333333334,compromise,Male,30
7,40,,5,0.625,1,1.9,0.6,"1,1,1,1,1","0,1,1,0,1","1,0,0,1,0",25,6.633,25,2.965,24,1,,,,0,stay,Male,30
7,41,,5,0.625,0,1.8,0.6,"1,1,1,1,1","1,0,1,1,0","0,1,0,0,1",45,3.767,55,2.78,60,1,,,,0.6666666666666666,compromise,Male,30
7,42,,5,0,1,1.9,0,"1,1,1,1,1","0,0,0,0,0","1,1,1,1,1",0,2.283,0,2.213,0,3,,,,NA,NA,Male,30
7,43,,45,0.25,0,1.5,0.244444444,"9,9,9,9,9","1,1,4,2,3","8,8,5,7,6",40,2.584,28,4.663,23,1,,,,0.7058823529411765,compromise,Male,30
7,44,,5,0.625,0,1.8,0.6,"1,1,1,1,1","0,0,1,1,1","1,1,0,0,0",60,2.25,60,2.997,75,3,,,,0,stay,Male,30
7,45,,5,0.375,1,1.8,0.4,"1,1,1,1,1","1,0,0,1,0","0,1,1,0,1",60,1.649,60,3.08,16,1,,,,0,stay,Male,30
7,46,,5,0.75,0,1.9,0.8,"1,1,1,1,1","1,1,0,1,1","0,0,1,0,0",80,6.417,75,3.18,65,2,,,,0.3333333333333333,compromise,Male,30
7,47,,45,0.875,1,1.5,0.866666667,"9,9,9,9,9","8,8,8,8,7","1,1,1,1,2",90,0.934,90,4.838,36,1,,,,0,stay,Male,30
7,48,,5,0.5,0,2,0.6,"1,1,1,1,1","0,1,1,1,0","1,0,0,0,1",70,2.149,65,2.229,55,3,,,,0.3333333333333333,compromise,Male,30
7,49,,45,0.125,0,1.8,0.133333333,"9,9,9,9,9","0,1,2,1,2","9,8,7,8,7",15,2,10,3.314,0,3,,,,0.3333333333333333,compromise,Male,30
7,50,,45,0.375,0,1.9,0.377777778,"9,9,9,9,9","5,3,5,1,3","4,6,4,8,6",70,1.867,65,2.68,55,3,,,,0.3333333333333333,compromise,Male,30
7,51,,45,0.375,0,2,0.377777778,"9,9,9,9,9","3,7,4,1,2","6,2,5,8,7",60,2.416,55,2.781,44,1,,,,0.3125,compromise,Male,30
7,52,,5,0.875,0,1.5,0.8,"1,1,1,1,1","1,1,1,1,0","0,0,0,0,1",90,1.4,80,2.147,72,3,,,,0.5555555555555556,compromise,Male,30
7,53,,45,1,1,2,1,"9,9,9,9,9","9,9,9,9,9","0,0,0,0,0",100,1.349,100,1.981,98,3,,,,0,stay,Male,30
7,54,,5,0.75,0,1.6,0.8,"1,1,1,1,1","1,1,1,1,0","0,0,0,0,1",80,2.299,8,1.413,65,1,,,,4.8,copy,Male,30
8,1,,5,0.875,0,1.5,0.8,"1,1,1,1,1","1,0,1,1,1","0,1,0,0,0",70,2.6478,70,4.8095,88,2,,,,0,stay,Male,26
8,2,,45,0.625,0,1.9,0.622222222,"9,9,9,9,9","6,6,6,4,6","3,3,3,5,3",60,1.9041,60,3.662,75,2,,,,0,stay,Male,26
8,3,,5,0.25,0,1.5,0.2,"1,1,1,1,1","0,0,0,0,1","1,1,1,1,0",10,3.5205,10,3.1951,27,3,,,,0,stay,Male,26
8,4,,45,0.875,0,1.6,0.866666667,"9,9,9,9,9","8,9,7,7,8","1,0,2,2,1",90,2.6044,90,3.8604,75,1,,,,0,stay,Male,26
8,5,,45,0.125,0,1.6,0.133333333,"9,9,9,9,9","1,2,1,0,2","8,7,8,9,7",10,1.7166,10,2.1147,25,2,,,,0,stay,Male,26
8,6,,45,0.125,1,1.7,0.133333333,"9,9,9,9,9","3,2,1,0,0","6,7,8,9,9",20,1.988,20,6.9874,88,1,,,,0,stay,Male,26
8,7,,5,0.25,0,1.6,0.2,"1,1,1,1,1","0,0,0,1,0","1,1,1,0,1",10,5.182,10,1.4084,28,2,,,,0,stay,Male,26
8,8,,45,0.25,0,1.6,0.244444444,"9,9,9,9,9","1,3,1,3,3","8,6,8,6,6",30,3.7484,30,2.2486,14,3,,,,0,stay,Male,26
8,9,,5,0.375,1,1.6,0.4,"1,1,1,1,1","1,1,0,0,0","0,0,1,1,1",30,2.4038,30,1.3772,30,3,,,,NA,NA,Male,26
8,10,,45,0.75,0,1.6,0.755555556,"9,9,9,9,9","7,7,5,7,8","2,2,4,2,1",80,2.6492,80,3.2434,65,3,,,,0,stay,Male,26
8,11,,45,0.75,1,1.6,0.755555556,"9,9,9,9,9","5,7,7,8,7","4,2,2,1,2",80,2.6878,80,1.7945,78,3,,,,0,stay,Male,26
8,12,,5,0.875,0,1.5,0.8,"1,1,1,1,1","1,1,0,1,1","0,0,1,0,0",90,1.2494,90,1.9088,72,3,,,,0,stay,Male,26
8,13,,5,0.125,0,1.8,0.2,"1,1,1,1,1","0,1,0,0,0","1,0,1,1,1",20,1.5155,20,1.8439,3,3,,,,0,stay,Male,26
8,14,,45,0.75,0,1.9,0.755555556,"9,9,9,9,9","5,6,8,7,8","4,3,1,2,1",50,2.9145,50,1.216,66,1,,,,0,stay,Male,26
8,15,,5,0.5,1,1.9,0.6,"1,1,1,1,1","1,1,0,1,0","0,0,1,0,1",60,3.2147,60,2.1769,62,1,,,,0,stay,Male,26
8,16,,5,0.75,0,2,0.8,"1,1,1,1,1","1,1,0,1,1","0,0,1,0,0",30,5.015,40,2.4987,48,3,,,,0.5555555555555556,compromise,Male,26
8,17,,45,0.5,0,1.7,0.511111111,"9,9,9,9,9","5,7,4,5,2","4,2,5,4,7",50,1.2879,50,2.4057,65,2,,,,0,stay,Male,26
8,18,,45,0.375,0,1.9,0.377777778,"9,9,9,9,9","3,0,6,3,5","6,9,3,6,4",40,1.4334,40,1.4772,25,2,,,,0,stay,Male,26
8,19,,45,0,1,2,0,"9,9,9,9,9","0,0,0,0,0","9,9,9,9,9",5,4.2034,5,1.8059,5,3,,,,NA,NA,Male,26
8,20,,45,0.25,1,1.6,0.244444444,"9,9,9,9,9","3,2,2,2,2","6,7,7,7,7",10,4.8656,10,4.0484,63,1,,,,0,stay,Male,26
8,21,,45,0.875,0,2,0.866666667,"9,9,9,9,9","8,8,8,8,7","1,1,1,1,2",70,3.1706,70,1.5749,88,2,,,,0,stay,Male,26
8,22,,45,0.75,0,1.8,0.755555556,"9,9,9,9,9","6,5,7,7,9","3,4,2,2,0",60,2.8292,60,1.361,76,2,,,,0,stay,Male,26
8,23,,5,0.125,0,1.8,0.2,"1,1,1,1,1","0,0,0,1,0","1,1,1,0,1",20,3.4371,20,1.2374,3,2,,,,0,stay,Male,26
8,24,,45,0.625,0,1.7,0.622222222,"9,9,9,9,9","6,6,4,5,7","3,3,5,4,2",50,2.0994,50,1.4083,65,3,,,,0,stay,Male,26
8,25,,5,0.375,0,1.8,0.4,"1,1,1,1,1","0,0,0,1,1","1,1,1,0,0",40,1.7162,40,1.149,24,1,,,,0,stay,Male,26
8,26,,5,0.75,0,1.5,0.8,"1,1,1,1,1","1,1,0,1,1","0,0,1,0,0",80,1.533,80,2.7245,63,2,,,,0,stay,Male,26
8,27,,45,1,1,1.6,1,"9,9,9,9,9","9,9,9,9,9","0,0,0,0,0",100,3.0816,100,2.5771,100,3,,,,NA,NA,Male,26
8,28,,5,0.125,0,2,0.2,"1,1,1,1,1","1,0,0,0,0","0,1,1,1,1",20,0.8835,20,1.8263,2,1,,,,0,stay,Male,26
8,29,,45,0.5,0,1.7,0.511111111,"9,9,9,9,9","3,3,6,5,6","6,6,3,4,3",40,1.8322,40,1.1112,55,1,,,,0,stay,Male,26
8,30,,5,0.5,0,1.6,0.6,"1,1,1,1,1","0,1,0,1,1","1,0,1,0,0",60,1.2897,60,1.2574,42,3,,,,0,stay,Male,26
8,31,,5,0.375,0,1.7,0.4,"1,1,1,1,1","0,1,1,0,0","1,0,0,1,1",40,1.8221,40,0.9424,25,3,,,,0,stay,Male,26
8,32,,5,0,1,2,0,"1,1,1,1,1","0,0,0,0,0","1,1,1,1,1",5,2.2213,5,1.8113,5,3,,,,NA,NA,Male,26
8,33,,5,0.75,0,1.9,0.8,"1,1,1,1,1","0,1,1,1,1","1,0,0,0,0",80,2.9489,80,1.0605,65,1,,,,0,stay,Male,26
8,34,,45,0.875,1,1.6,0.866666667,"9,9,9,9,9","9,7,8,7,8","0,2,1,2,1",80,1.2332,80,1.2491,18,1,,,,0,stay,Male,26
8,35,,45,0.125,0,1.8,0.133333333,"9,9,9,9,9","2,1,1,0,2","7,8,8,9,7",20,1.1654,20,1.4991,2,1,,,,0,stay,Male,26
8,36,,5,0.875,0,1.7,0.8,"1,1,1,1,1","1,1,0,1,1","0,0,1,0,0",80,1.3824,80,1.4944,95,1,,,,0,stay,Male,26
8,37,,45,0.25,0,1.7,0.244444444,"9,9,9,9,9","2,2,3,2,2","7,7,6,7,7",20,1.3343,20,0.9448,37,1,,,,0,stay,Male,26
8,38,,45,0.375,0,1.5,0.377777778,"9,9,9,9,9","5,2,4,5,1","4,7,5,4,8",40,1.3156,40,2.2288,22,1,,,,0,stay,Male,26
8,39,,5,0.25,0,1.5,0.2,"1,1,1,1,1","0,0,0,1,0","1,1,1,0,1",20,1.0708,20,1.0899,36,1,,,,0,stay,Male,26
8,40,,5,0,1,1.9,0,"1,1,1,1,1","0,0,0,0,0","1,1,1,1,1",5,0.9044,5,0.8774,3,3,,,,0,stay,Male,26
8,41,,5,0.625,0,2,0.6,"1,1,1,1,1","0,0,1,1,1","1,1,0,0,0",60,0.9282,60,1.1942,75,3,,,,0,stay,Male,26
8,42,,5,0.625,0,1.5,0.6,"1,1,1,1,1","1,1,1,0,0","0,0,0,1,1",60,0.9997,60,2.1304,75,2,,,,0,stay,Male,26
8,43,,5,0.625,0,1.5,0.6,"1,1,1,1,1","0,1,0,1,1","1,0,1,0,0",60,1.0655,60,1.0317,75,1,,,,0,stay,Male,26
8,44,,5,0.5,0,1.6,0.6,"1,1,1,1,1","0,1,1,1,0","1,0,0,0,1",60,1.7366,60,0.8566,45,2,,,,0,stay,Male,26
8,45,,5,0.5,0,1.5,0.6,"1,1,1,1,1","1,0,1,0,1","0,1,0,1,0",60,2.7655,60,1.8102,44,1,,,,0,stay,Male,26
8,46,,45,0.25,0,1.7,0.244444444,"9,9,9,9,9","0,3,3,3,2","9,6,6,6,7",30,2.3652,30,1.0659,14,2,,,,0,stay,Male,26
8,47,,5,0.625,1,1.9,0.6,"1,1,1,1,1","1,0,0,1,1","0,1,1,0,0",60,1.0841,60,2.5053,3,1,,,,0,stay,Male,26
8,48,,45,0.875,0,1.8,0.866666667,"9,9,9,9,9","8,8,9,6,8","1,1,0,3,1",90,1.6999,90,1.1291,73,3,,,,0,stay,Male,26
8,49,,45,0.625,0,1.6,0.622222222,"9,9,9,9,9","5,5,7,6,5","4,4,2,3,4",50,1.8702,50,1.796,67,1,,,,0,stay,Male,26
8,50,,5,0.375,0,1.5,0.4,"1,1,1,1,1","0,0,0,1,1","1,1,1,0,0",40,0.955,40,1.0225,25,2,,,,0,stay,Male,26
8,51,,45,0.125,0,1.8,0.133333333,"9,9,9,9,9","1,1,1,2,1","8,8,8,7,8",20,1.1887,20,0.8111,3,3,,,,0,stay,Male,26
8,52,,45,0.375,0,1.9,0.377777778,"9,9,9,9,9","3,4,2,4,4","6,5,7,5,5",30,1.337,30,0.8125,48,3,,,,0,stay,Male,26
8,53,,5,1,1,2,1,"1,1,1,1,1","1,1,1,1,1","0,0,0,0,0",95,1.2828,95,1.617,93,3,,,,0,stay,Male,26
8,54,,45,0.5,0,1.8,0.511111111,"9,9,9,9,9","6,4,5,3,5","3,5,4,6,4",50,0.9662,50,0.7933,34,3,,,,0,stay,Male,26
9,1,,45,0.625,0,1.7,0.622222222,"9,9,9,9,9","3,6,6,7,6","6,3,3,2,3",65,6.707,55,5.0057,50,3,,,,0.6666666666666666,compromise,Male,22
9,2,,45,0.125,0,1.9,0.133333333,"9,9,9,9,9","1,1,1,0,3","8,8,8,9,6",70,8.3976,70,8.672,54,1,,,,0,stay,Male,22
9,3,,45,0,1,1.5,0,"9,9,9,9,9","0,0,0,0,0","9,9,9,9,9",NA,NA,NA,NA,NA,NA,,,,NA,NA,Male,22
9,4,,5,0.5,0,1.7,0.6,"1,1,1,1,1","0,1,1,0,1","1,0,0,1,0",50,3.2446,60,7.169,66,1,,,,0.625,compromise,Male,22
9,5,,45,0.375,0,1.8,0.377777778,"9,9,9,9,9","2,2,6,4,3","7,7,3,5,6",40,5.0681,30,3.2318,23,2,,,,0.5882352941176471,compromise,Male,22
9,6,,5,0.75,0,1.5,0.8,"1,1,1,1,1","1,1,1,1,0","0,0,0,0,1",80,6.4932,70,4.4317,65,3,,,,0.6666666666666666,compromise,Male,22
9,7,,5,0.875,0,1.5,0.8,"1,1,1,1,1","1,1,1,1,0","0,0,0,0,1",70,7.3005,75,4.5489,86,1,,,,0.3125,compromise,Male,22
9,8,,45,0.875,0,1.8,0.866666667,"9,9,9,9,9","8,8,9,7,7","1,1,0,2,2",80,3.7341,85,4.4316,97,2,,,,0.29411764705882354,compromise,Male,22
9,9,,5,0.75,0,1.8,0.8,"1,1,1,1,1","1,0,1,1,1","0,1,0,0,0",70,5.7799,75,3.8048,85,2,,,,0.3333333333333333,compromise,Male,22
9,10,,5,0.625,1,1.7,0.6,"1,1,1,1,1","0,1,1,0,1","1,0,0,1,0",70,7.182,60,9.0286,2,1,,,,0.14705882352941177,compromise,Male,22
9,11,,45,0.25,0,1.6,0.244444444,"9,9,9,9,9","2,3,3,0,3","7,6,6,9,6",25,5.4413,20,4.1272,10,3,,,,0.3333333333333333,compromise,Male,22
9,12,,45,0.75,0,1.5,0.755555556,"9,9,9,9,9","8,6,7,6,7","1,3,2,3,2",75,5.1511,75,4.3172,93,2,,,,0,stay,Male,22
9,13,,45,0.25,0,1.5,0.244444444,"9,9,9,9,9","4,2,1,2,2","5,7,8,7,7",35,6.4716,30,2.5583,20,2,,,,0.3333333333333333,compromise,Male,22
9,14,,5,0.5,0,1.7,0.6,"1,1,1,1,1","1,1,0,1,0","0,0,1,0,1",70,6.2746,65,2.9224,52,2,,,,0.2777777777777778,compromise,Male,22
9,15,,5,0.5,1,1.6,0.6,"1,1,1,1,1","1,0,1,1,0","0,1,0,0,1",60,7.4486,60,2.4505,60,2,,,,NA,NA,Male,22
9,16,,45,0.25,1,2,0.244444444,"9,9,9,9,9","2,2,2,3,2","7,7,7,6,7",25,5.3441,25,2.8407,24,2,,,,0,stay,Male,22
9,17,,45,0.75,0,1.7,0.755555556,"9,9,9,9,9","8,6,6,7,7","1,3,3,2,2",85,3.5823,80,2.7926,69,3,,,,0.3125,compromise,Male,22
9,18,,45,0.625,0,1.6,0.622222222,"9,9,9,9,9","6,6,5,5,6","3,3,4,4,3",70,6.0822,66,5.8853,52,2,,,,0.2222222222222222,compromise,Male,22
9,19,,5,0.625,0,2,0.6,"1,1,1,1,1","0,1,1,0,1","1,0,0,1,0",65,5.813,60,2.7596,50,1,,,,0.3333333333333333,compromise,Male,22
9,20,,45,0.375,0,1.9,0.377777778,"9,9,9,9,9","2,3,3,4,5","7,6,6,5,4",40,6.0031,35,3.943,24,1,,,,0.3125,compromise,Male,22
9,21,,45,0.125,0,2,0.133333333,"9,9,9,9,9","0,1,2,0,3","9,8,7,9,6",15,5.9159,10,5.2766,0,2,,,,0.3333333333333333,compromise,Male,22
9,22,,45,0.875,0,1.5,0.866666667,"9,9,9,9,9","7,7,8,8,9","2,2,1,1,0",90,2.5537,85,4.0594,75,3,,,,0.3333333333333333,compromise,Male,22
9,23,,45,0.25,0,1.5,0.244444444,"9,9,9,9,9","0,5,0,3,3","9,4,9,6,6",50,4.4765,50,3.858,35,1,,,,0,stay,Male,22
9,24,,5,0.25,0,1.6,0.2,"1,1,1,1,1","0,1,0,0,0","1,0,1,1,1",15,4.3938,19,4.1608,30,2,,,,0.26666666666666666,compromise,Male,22
9,25,,45,0.875,1,2,0.866666667,"9,9,9,9,9","7,7,7,9,9","2,2,2,0,0",90,3.7537,85,4.3119,41,1,,,,0.10204081632653061,compromise,Male,22
9,26,,5,0.625,0,1.6,0.6,"1,1,1,1,1","0,1,1,0,1","1,0,0,1,0",70,5.1032,65,2.8609,52,2,,,,0.2777777777777778,compromise,Male,22
9,27,,5,0.375,0,2,0.4,"1,1,1,1,1","0,0,1,1,0","1,1,0,0,1",30,2.8903,30,5.1386,48,3,,,,0,stay,Male,22
9,28,,45,1,1,2,1,"9,9,9,9,9","9,9,9,9,9","0,0,0,0,0",99,6.1171,99,3.1829,99,3,,,,NA,NA,Male,22
9,29,,5,0.5,0,2,0.6,"1,1,1,1,1","1,1,0,0,1","0,0,1,1,0",70,5.4098,70,3.0445,54,3,,,,0,stay,Male,22
9,30,,5,1,1,1.6,1,"1,1,1,1,1","1,1,1,1,1","0,0,0,0,0",90,5.1699,90,3.3499,90,3,,,,NA,NA,Male,22
9,31,,45,0.5,0,1.9,0.511111111,"9,9,9,9,9","5,3,4,5,6","4,6,5,4,3",55,2.2138,48,6.4914,40,3,,,,0.4666666666666667,compromise,Male,22
9,32,,5,0.125,0,1.7,0.2,"1,1,1,1,1","0,0,0,0,1","1,1,1,1,0",20,5.4929,10,5.3946,5,3,,,,0.6666666666666666,compromise,Male,22
9,33,,5,0.875,0,2,0.8,"1,1,1,1,1","1,1,1,0,1","0,0,0,1,0",70,6.5383,80,4.4647,85,2,,,,0.6666666666666666,compromise,Male,22
9,34,,45,0.625,0,2,0.622222222,"9,9,9,9,9","5,7,4,6,6","4,2,5,3,3",60,4.885,65,4.3647,77,1,,,,0.29411764705882354,compromise,Male,22
9,35,,45,0.5,0,1.6,0.511111111,"9,9,9,9,9","4,3,8,4,4","5,6,1,5,5",40,4.1054,45,2.7263,56,1,,,,0.3125,compromise,Male,22
9,36,,5,0.375,1,2,0.4,"1,1,1,1,1","0,1,0,0,1","1,0,1,1,0",30,4.6306,40,5.3943,85,1,,,,0.18181818181818182,compromise,Male,22
9,37,,5,0.25,0,1.8,0.2,"1,1,1,1,1","0,1,0,0,0","1,0,1,1,1",15,6.1342,20,2.5385,30,1,,,,0.3333333333333333,compromise,Male,22
9,38,,5,0,1,1.8,0,"1,1,1,1,1","0,0,0,0,0","1,1,1,1,1",10,3.3295,10,2.843,8,3,,,,0,stay,Male,22
9,39,,5,0.875,0,1.6,0.8,"1,1,1,1,1","1,1,1,1,0","0,0,0,0,1",20,5.2233,NA,NA,NA,NA,,,,NA,NA,Male,22
9,40,,5,0.375,0,2,0.4,"1,1,1,1,1","0,0,0,1,1","1,1,1,0,0",40,3.5825,35,2.6579,25,1,,,,0.3333333333333333,compromise,Male,22
9,41,,5,0.125,0,1.7,0.2,"1,1,1,1,1","0,1,0,0,0","1,0,1,1,1",15,4.5945,10,3.7527,0,1,,,,0.3333333333333333,compromise,Male,22
9,42,,45,0.125,0,1.7,0.133333333,"9,9,9,9,9","3,0,1,1,1","6,9,8,8,8",10,5.0707,15,2.3335,26,3,,,,0.3125,compromise,Male,22
9,43,,45,0.75,0,1.5,0.755555556,"9,9,9,9,9","6,8,6,7,7","3,1,3,2,2",75,4.5635,70,2.438,60,1,,,,0.3333333333333333,compromise,Male,22
9,44,,5,0,1,1.8,0,"1,1,1,1,1","0,0,0,0,0","1,1,1,1,1",10,4.9705,10,5.8657,11,3,,,,0,stay,Male,22
9,45,,45,0.875,0,2,0.866666667,"9,9,9,9,9","6,9,8,8,8","3,0,1,1,1",90,5.0364,80,6.2245,73,1,,,,0.5882352941176471,compromise,Male,22
9,46,,5,0.25,0,1.7,0.2,"1,1,1,1,1","0,1,0,0,0","1,0,1,1,1",15,4.6811,20,2.6085,31,3,,,,0.3125,compromise,Male,22
9,47,,45,0.5,0,2,0.511111111,"9,9,9,9,9","6,7,4,4,2","3,2,5,5,7",50,3.2947,50,4.8218,34,2,,,,0,stay,Male,22
9,48,,45,0.375,0,1.9,0.377777778,"9,9,9,9,9","5,1,2,5,4","4,8,7,4,5",40,5.9825,40,3.1656,23,3,,,,0,stay,Male,22
9,49,,5,0.125,0,1.9,0.2,"1,1,1,1,1","0,1,0,0,0","1,0,1,1,1",20,5.9477,15,3.2689,3,2,,,,0.29411764705882354,compromise,Male,22
9,50,,5,0.625,0,1.6,0.6,"1,1,1,1,1","1,0,0,1,1","0,1,1,0,0",60,7.658,65,3.1622,75,3,,,,0.3333333333333333,compromise,Male,22
9,51,,5,0.75,0,1.6,0.8,"1,1,1,1,1","1,0,1,1,1","0,1,0,0,0",75,5.7331,72,3.8694,60,1,,,,0.2,compromise,Male,22
9,52,,45,0.75,1,1.6,0.755555556,"9,9,9,9,9","7,6,6,6,9","2,3,3,3,0",80,5.4111,80,2.5364,82,1,,,,0,stay,Male,22
9,53,,45,0.125,1,1.5,0.133333333,"9,9,9,9,9","1,0,1,2,2","8,9,8,7,7",15,4.6487,15,4.6849,90,1,,,,0,stay,Male,22
9,54,,5,0.375,0,1.7,0.4,"1,1,1,1,1","1,0,0,0,1","0,1,1,1,0",30,3.8524,30,3.047,45,2,,,,0,stay,Male,22
10,1,,5,0,1,1.9,0,"1,1,1,1,1","0,0,0,0,0","1,1,1,1,1",10,4.6492000000000004,10,3.4433,11,3,,,,0,stay,Male,36
10,2,,45,0.125,1,1.9,0.133333333,"9,9,9,9,9","2,1,0,2,1","7,8,9,7,8",10,4.7995,15,7.2125,80,1,,,,0.071428571,compromise,Male,36
10,3,,45,0.75,0,1.6,0.755555556,"9,9,9,9,9","6,7,8,5,8","3,2,1,4,1",70,5.9318,75,3.8127,86,3,,,,0.3125,compromise,Male,36
10,4,,5,0.5,1,1.7,0.6,"1,1,1,1,1","0,0,1,1,1","1,1,0,0,0",60,4.8153,60,2.946,60,3,,,,NA,NA,Male,36
10,5,,5,0.5,0,1.8,0.6,"1,1,1,1,1","0,1,1,0,1","1,0,0,1,0",60,3.3664,60,4.1798,45,2,,,,0,stay,Male,36
10,6,,45,0.75,1,1.5,0.755555556,"9,9,9,9,9","6,7,6,7,8","3,2,3,2,1",75,3.8167,70,4.1109,24,1,,,,0.098039216,compromise,Male,36
10,7,,45,0.25,0,2,0.244444444,"9,9,9,9,9","2,1,3,1,4","7,8,6,8,5",20,4.3654,25,3.6623,38,3,,,,0.2777777777777778,compromise,Male,36
10,8,,5,0.25,0,1.5,0.2,"1,1,1,1,1","1,0,0,0,0","0,1,1,1,1",25,4.7329,30,3.529,43,1,,,,0.2777777777777778,compromise,Male,36
10,9,,45,0.625,0,1.8,0.622222222,"9,9,9,9,9","7,8,5,3,5","2,1,4,6,4",65,2.9165,55,4.5959,50,3,,,,0.6666666666666666,compromise,Male,36
10,10,,45,0.375,0,1.5,0.377777778,"9,9,9,9,9","2,3,5,4,3","7,6,4,5,6",30,5.7994,35,2.6113,46,3,,,,0.3125,compromise,Male,36
10,11,,5,0.75,0,2,0.8,"1,1,1,1,1","1,1,1,0,1","0,0,0,1,0",80,3.5668,80,4.2794,65,2,,,,0,stay,Male,36
10,12,,45,0.375,0,1.5,0.377777778,"9,9,9,9,9","4,2,2,4,5","5,7,7,5,4",35,3.967,35,3.0467,52,2,,,,0,stay,Male,36
10,13,,5,0.5,0,1.5,0.6,"1,1,1,1,1","0,1,0,1,1","1,0,1,0,0",60,2.75,50,5.6618,44,3,,,,0.625,compromise,Male,36
10,14,,5,0.25,0,1.9,0.2,"1,1,1,1,1","0,1,0,0,0","1,0,1,1,1",20,5.2492,25,4.1126,37,2,,,,0.29411764705882354,compromise,Male,36
10,15,,5,0.875,0,1.5,0.8,"1,1,1,1,1","1,0,1,1,1","0,1,0,0,0",80,3.6157,75,4.9628,97,1,,,,-0.294117647,stay,Male,36
10,16,,45,0.875,0,1.7,0.866666667,"9,9,9,9,9","9,6,7,8,9","0,3,2,1,0",90,2.2161,85,4.9294,73,3,,,,0.29411764705882354,compromise,Male,36
10,17,,45,0.75,0,1.6,0.755555556,"9,9,9,9,9","6,9,7,7,5","3,0,2,2,4",75,2.3986,75,7.8124,90,2,,,,0,stay,Male,36
10,18,,45,0.25,1,1.9,0.244444444,"9,9,9,9,9","2,1,2,2,4","7,8,7,7,5",25,2.7657,25,3.947,84,1,,,,0,stay,Male,36
10,19,,5,0.75,0,2,0.8,"1,1,1,1,1","1,1,1,1,0","0,0,0,0,1",80,3.1326,70,4.6291,62,3,,,,0.5555555555555556,compromise,Male,36
10,20,,5,1,1,1.8,1,"1,1,1,1,1","1,1,1,1,1","0,0,0,0,0",90,3.8666,90,2.6293,89,3,,,,0,stay,Male,36
10,21,,5,0.625,0,1.9,0.6,"1,1,1,1,1","1,1,0,1,0","0,0,1,0,1",60,3.2674,65,3.6789,76,2,,,,0.3125,compromise,Male,36
10,22,,5,0,1,1.7,0,"1,1,1,1,1","0,0,0,0,0","1,1,1,1,1",10,2.9674,10,2.3621,11,3,,,,0,stay,Male,36
10,23,,5,0.375,0,1.5,0.4,"1,1,1,1,1","1,0,0,0,1","0,1,1,1,0",40,3.1655,30,4.414,25,3,,,,0.6666666666666666,compromise,Male,36
10,24,,45,0.875,1,1.8,0.866666667,"9,9,9,9,9","8,9,7,8,7","1,0,2,1,2",85,1.9652,85,2.7956,84,3,,,,0,stay,Male,36
10,25,,5,0.625,0,2,0.6,"1,1,1,1,1","1,1,0,0,1","0,0,1,1,0",60,2.649,72,3.6478,78,3,,,,0.6666666666666666,compromise,Male,36
10,26,,5,0.875,0,1.8,0.8,"1,1,1,1,1","0,1,1,1,1","1,0,0,0,0",80,3.1488,90,3.2636,95,3,,,,0.6666666666666666,compromise,Male,36
10,27,,45,0.375,0,1.9,0.377777778,"9,9,9,9,9","2,2,6,4,3","7,7,3,5,6",50,2.7008,55,4.5303,35,1,,,,-0.333333333,stay,Male,36
10,28,,5,0.75,0,2,0.8,"1,1,1,1,1","1,1,0,1,1","0,0,1,0,0",80,3.0484,80,4.0964,65,1,,,,0,stay,Male,36
10,29,,45,0.25,0,1.7,0.244444444,"9,9,9,9,9","2,3,1,2,3","7,6,8,7,6",25,2.6,30,8.5622,40,2,,,,0.3333333333333333,compromise,Male,36
10,30,,45,0.25,0,1.8,0.244444444,"9,9,9,9,9","3,4,1,2,1","6,5,8,7,8",20,2.9002,20,2.9114,35,1,,,,0,stay,Male,36
10,31,,45,0.5,0,1.8,0.511111111,"9,9,9,9,9","4,5,5,3,6","5,4,4,6,3",50,2.3169,50,2.8947,68,1,,,,0,stay,Male,36
10,32,,5,0.375,1,2,0.4,"1,1,1,1,1","0,1,0,0,1","1,0,1,1,0",40,3.1836,42,3.6639,82,1,,,,0.047619047619047616,compromise,Male,36
10,33,,45,0.625,0,1.7,0.622222222,"9,9,9,9,9","6,5,5,6,6","3,4,4,3,3",60,2.4667,60,2.7123,75,1,,,,0,stay,Male,36
10,34,,5,0.125,0,1.8,0.2,"1,1,1,1,1","0,0,0,0,1","1,1,1,1,0",20,1.5333,24,4.579,3,1,,,,-0.235294118,stay,Male,36
10,35,,5,0.875,0,1.5,0.8,"1,1,1,1,1","1,1,1,0,1","0,0,0,1,0",80,2.1328,80,3.8283,95,2,,,,0,stay,Male,36
10,36,,5,0.375,0,1.8,0.4,"1,1,1,1,1","0,0,1,1,0","1,1,0,0,1",40,3.1163,45,2.9122,22,1,,,,-0.277777778,stay,Male,36
10,37,,45,0.625,0,1.9,0.622222222,"9,9,9,9,9","5,7,4,5,7","4,2,5,4,2",60,2.2825,62,5.2318,78,2,,,,0.1111111111111111,compromise,Male,36
10,38,,5,0.375,0,1.7,0.4,"1,1,1,1,1","0,0,1,0,1","1,1,0,1,0",40,1.899,35,2.4965,25,2,,,,0.3333333333333333,compromise,Male,36
10,39,,45,0.125,0,1.7,0.133333333,"9,9,9,9,9","2,2,0,0,2","7,7,9,9,7",15,2.1665,8,4.5943,0,2,,,,0.4666666666666667,compromise,Male,36
10,40,,45,0.125,0,2,0.133333333,"9,9,9,9,9","1,0,2,1,2","8,9,7,8,7",15,1.8338,5,3.1291,0,3,,,,0.6666666666666666,compromise,Male,36
10,41,,45,1,1,1.6,1,"9,9,9,9,9","9,9,9,9,9","0,0,0,0,0",99,3.2822,99,3.5945,100,3,,,,0,stay,Male,36
10,42,,45,0.875,0,1.8,0.866666667,"9,9,9,9,9","8,9,9,7,6","1,0,0,2,3",85,2.2158,85,4.2631,100,1,,,,0,stay,Male,36
10,43,,45,0.5,0,1.5,0.511111111,"9,9,9,9,9","4,4,5,3,7","5,5,4,6,2",60,3.1337,55,2.7124,45,2,,,,0.3333333333333333,compromise,Male,36
10,44,,45,0.75,0,1.9,0.755555556,"9,9,9,9,9","8,5,6,7,8","1,4,3,2,1",80,2.2503,80,3.2457,65,1,,,,0,stay,Male,36
10,45,,5,0.625,1,1.6,0.6,"1,1,1,1,1","0,1,1,1,0","1,0,0,0,1",60,2.6991,65,4.1471,62,1,,,,2.5,copy,Male,36
10,46,,5,0.125,0,1.5,0.2,"1,1,1,1,1","0,0,0,1,0","1,1,1,0,1",20,2.284,15,3.5625,3,2,,,,0.29411764705882354,compromise,Male,36
10,47,,45,0.125,0,1.6,0.133333333,"9,9,9,9,9","1,1,2,2,0","8,8,7,7,9",20,2.3317,20,2.3641,3,1,,,,0,stay,Male,36
10,48,,5,0.25,0,1.5,0.2,"1,1,1,1,1","0,0,0,1,0","1,1,1,0,1",40,2.6666,30,3.096,22,3,,,,0.5555555555555556,compromise,Male,36
10,49,,45,0.875,0,1.8,0.866666667,"9,9,9,9,9","9,8,6,8,8","0,1,3,1,1",85,2.6996000000000002,85,2.4465,100,2,,,,0,stay,Male,36
10,50,,45,0,1,2,0,"9,9,9,9,9","0,0,0,0,0","9,9,9,9,9",2,3.2331,2,2.1641,0,3,,,,0,stay,Male,36
10,51,,5,0.5,0,1.7,0.6,"1,1,1,1,1","0,1,0,1,1","1,0,1,0,0",60,2.3164,65,3.3619,44,1,,,,-0.3125,stay,Male,36
10,52,,5,0.125,0,1.9,0.2,"1,1,1,1,1","0,0,0,0,1","1,1,1,1,0",20,1.6494,5,4.4777,3,3,,,,0.8823529411764706,compromise,Male,36
10,53,,5,0.625,0,1.8,0.6,"1,1,1,1,1","0,1,0,1,1","1,0,1,0,0",65,1.8658,67,4.613,50,1,,,,-0.133333333,stay,Male,36
10,54,,45,0.5,0,1.6,0.511111111,"9,9,9,9,9","5,6,4,4,4","4,3,5,5,5",45,1.7996,56,3.3301,60,3,,,,0.7333333333333333,compromise,Male,36
11,1,,45,0.75,0,1.7,0.755555556,"9,9,9,9,9","6,7,8,6,7","3,2,1,3,2",88,4.816535,82,5.59821,70,1,,,,0.3333333333333333,compromise,Male,22
11,2,,5,0.25,0,1.6,0.2,"1,1,1,1,1","0,0,0,1,0","1,1,1,0,1",60,7.03313,55,4.28162,44,1,,,,0.3125,compromise,Male,22
11,3,,45,0.5,0,1.5,0.511111111,"9,9,9,9,9","5,5,6,4,3","4,4,3,5,6",50,5.09986,60,4.715045,67,2,,,,0.5882352941176471,compromise,Male,22
11,4,,45,0.75,0,1.9,0.755555556,"9,9,9,9,9","7,6,8,6,7","2,3,1,3,2",70,7.8665,88,3.76494,88,3,,,,1,copy,Male,22
11,5,,5,0.5,0,1.8,0.6,"1,1,1,1,1","1,1,1,0,0","0,0,0,1,1",44,5.24985,59,4.681635,60,3,,,,0.9375,compromise,Male,22
11,6,,45,0.375,0,1.9,0.377777778,"9,9,9,9,9","5,2,3,4,3","4,7,6,5,6",77,2.29991,70,3.74843,60,2,,,,0.4117647058823529,compromise,Male,22
11,7,,5,0.375,0,1.5,0.4,"1,1,1,1,1","0,0,1,0,1","1,1,0,1,0",40,8.16643,40,4.048305,24,1,,,,0,stay,Male,22
11,8,,5,0.5,0,1.5,0.6,"1,1,1,1,1","0,1,1,1,0","1,0,0,0,1",30,7.067245,35,3.980935,48,1,,,,0.2777777777777778,compromise,Male,22
11,9,,45,0.25,0,1.6,0.244444444,"9,9,9,9,9","3,1,1,4,2","6,8,8,5,7",30,6.19983,25,5.065055,14,2,,,,0.3125,compromise,Male,22
11,10,,5,0.125,0,1.7,0.2,"1,1,1,1,1","1,0,0,0,0","0,1,1,1,1",25,5.999845,20,3.78174,10,1,,,,0.3333333333333333,compromise,Male,22
11,11,,5,0.875,0,1.5,0.8,"1,1,1,1,1","1,1,1,1,0","0,0,0,0,1",40,2.533215,55,3.798395,58,3,,,,0.8333333333333334,compromise,Male,22
11,12,,5,0.875,0,1.9,0.8,"1,1,1,1,1","1,0,1,1,1","0,1,0,0,0",40,3.516535,40,2.16511,55,1,,,,0,stay,Male,22
11,13,,5,0,1,1.8,0,"1,1,1,1,1","0,0,0,0,0","1,1,1,1,1",45,6.08317,45,2.581795,44,3,,,,0,stay,Male,22
11,14,,45,0.875,0,1.6,0.866666667,"9,9,9,9,9","9,8,8,5,9","0,1,1,4,0",88,3.416555,85,3.91515,71,2,,,,0.17647058823529413,compromise,Male,22
11,15,,5,0.75,0,1.6,0.8,"1,1,1,1,1","1,1,1,1,0","0,0,0,0,1",40,2.566575,55,2.71512,56,3,,,,0.9375,compromise,Male,22
11,16,,45,0.875,0,2,0.866666667,"9,9,9,9,9","8,9,9,5,8","1,0,0,4,1",90,2.583245,80,2.698335,74,3,,,,0.625,compromise,Male,22
11,17,,45,0.375,0,1.8,0.377777778,"9,9,9,9,9","3,2,3,4,5","6,7,6,5,4",45,4.499865,36,4.39838,28,1,,,,0.5294117647058824,compromise,Male,22
11,18,,45,0.125,0,1.7,0.133333333,"9,9,9,9,9","0,2,2,1,1","9,7,7,8,8",30,4.43323,20,2.498375,12,1,,,,0.5555555555555556,compromise,Male,22
11,19,,5,0.125,0,1.6,0.2,"1,1,1,1,1","1,0,0,0,0","0,1,1,1,1",35,7.966465,30,7.56507,20,2,,,,0.3333333333333333,compromise,Male,22
11,20,,5,0.25,0,1.5,0.2,"1,1,1,1,1","0,0,1,0,0","1,1,0,1,1",25,3.68322,15,5.081665,10,3,,,,0.6666666666666666,compromise,Male,22
11,21,,5,0.125,0,1.9,0.2,"1,1,1,1,1","0,0,0,1,0","1,1,1,0,1",20,5.283215,5,9.19831,2,3,,,,0.8333333333333334,compromise,Male,22
11,22,,45,0.625,0,1.8,0.622222222,"9,9,9,9,9","7,8,6,3,4","2,1,3,6,5",77,3.13323,77,2.731775,60,1,,,,0,stay,Male,22
11,23,,5,0,1,1.6,0,"1,1,1,1,1","0,0,0,0,0","1,1,1,1,1",10,8.183115,10,2.63167,8,3,,,,0,stay,Male,22
11,24,,45,0.125,0,1.7,0.133333333,"9,9,9,9,9","1,0,2,2,1","8,9,7,7,8",15,7.666485,15,7.081735,0,2,,,,0,stay,Male,22
11,25,,45,0.25,1,1.6,0.244444444,"9,9,9,9,9","2,3,2,1,3","7,6,7,8,6",44,5.08321,44,4.215035,45,2,,,,0,stay,Male,22
11,26,,45,0.5,0,1.7,0.511111111,"9,9,9,9,9","7,3,4,3,6","2,6,5,6,3",50,7.94987,47,5.86498,33,1,,,,0.17647058823529413,compromise,Male,22
11,27,,45,0.875,1,1.5,0.866666667,"9,9,9,9,9","7,8,9,7,8","2,1,0,2,1",79,7.08315,50,9.4816,18,1,,,,0.47540983606557374,compromise,Male,22
11,28,,5,0.625,1,1.6,0.6,"1,1,1,1,1","1,1,0,1,0","0,0,1,0,1",40,5.03321,55,5.68169,84,1,,,,0.3409090909090909,compromise,Male,22
11,29,,5,0.625,0,1.9,0.6,"1,1,1,1,1","1,1,1,0,0","0,0,0,1,1",44,3.349875,44,2.765085,61,1,,,,0,stay,Male,22
11,30,,5,0.25,0,1.9,0.2,"1,1,1,1,1","1,0,0,0,0","0,1,1,1,1",40,3.099895,36,4.93177,24,2,,,,0.25,compromise,Male,22
11,31,,45,0.75,1,1.7,0.755555556,"9,9,9,9,9","7,7,6,8,6","2,2,3,1,3",80,2.766585,80,3.84841,22,1,,,,0,stay,Male,22
11,32,,45,0,1,2,0,"9,9,9,9,9","0,0,0,0,0","9,9,9,9,9",5,8.383155,5,2.698315,3,3,,,,0,stay,Male,22
11,33,,45,0.625,0,1.8,0.622222222,"9,9,9,9,9","6,7,5,5,5","3,2,4,4,4",55,3.53323,70,4.381715,70,3,,,,1,copy,Male,22
11,34,,45,0.25,0,1.6,0.244444444,"9,9,9,9,9","3,4,1,1,2","6,5,8,8,7",35,6.13319,30,4.0484,20,3,,,,0.3333333333333333,compromise,Male,22
11,35,,5,0.625,0,1.5,0.6,"1,1,1,1,1","0,1,1,0,1","1,0,0,1,0",30,3.783205,40,5.1651,46,2,,,,0.625,compromise,Male,22
11,36,,45,1,1,1.5,1,"9,9,9,9,9","9,9,9,9,9","0,0,0,0,0",95,2.499885,95,3.948325,96,3,,,,0,stay,Male,22
11,37,,45,0.75,0,1.6,0.755555556,"9,9,9,9,9","6,9,7,6,6","3,0,2,3,3",85,3.816545,80,2.44822,70,2,,,,0.3333333333333333,compromise,Male,22
11,38,,45,0.25,0,1.9,0.244444444,"9,9,9,9,9","1,3,2,4,1","8,6,7,5,8",25,2.83324,25,2.44845,10,1,,,,0,stay,Male,22
11,39,,45,0.125,1,1.5,0.133333333,"9,9,9,9,9","2,1,1,2,0","7,8,8,7,9",20,3.4832,20,3.21523,20,1,,,,NA,NA,Male,22
11,40,,45,0.625,0,2,0.622222222,"9,9,9,9,9","5,6,5,7,5","4,3,4,2,4",65,4.58321,60,2.748055,50,2,,,,0.3333333333333333,compromise,Male,22
11,41,,45,0.375,0,1.9,0.377777778,"9,9,9,9,9","3,1,5,4,4","6,8,4,5,5",50,3.666545,35,4.131725,32,3,,,,0.8333333333333334,compromise,Male,22
11,42,,5,0.75,0,1.5,0.8,"1,1,1,1,1","1,1,1,1,0","0,0,0,0,1",50,3.28323,55,1.96512,65,2,,,,0.3333333333333333,compromise,Male,22
11,43,,5,0.5,0,1.5,0.6,"1,1,1,1,1","1,0,1,1,0","0,1,0,0,1",44,2.599915,50,8.13167,60,2,,,,0.375,compromise,Male,22
11,44,,45,0.5,0,1.7,0.511111111,"9,9,9,9,9","4,4,5,6,4","5,5,4,3,5",45,2.56656,60,2.78177,61,3,,,,0.9375,compromise,Male,22
11,45,,5,0.375,0,1.6,0.4,"1,1,1,1,1","1,1,0,0,0","0,0,1,1,1",33,2.683215,39,4.31504,51,3,,,,0.3333333333333333,compromise,Male,22
11,46,,5,0.5,1,1.6,0.6,"1,1,1,1,1","1,1,0,0,1","0,0,1,1,0",45,2.69987,45,3.31521,3,1,,,,0,stay,Male,22
11,47,,5,0.75,0,1.5,0.8,"1,1,1,1,1","1,1,0,1,1","0,0,1,0,0",40,2.96659,40,2.015055,56,1,,,,0,stay,Male,22
11,48,,5,1,1,1.8,1,"1,1,1,1,1","1,1,1,1,1","0,0,0,0,0",50,3.7499,50,2.331795,50,3,,,,NA,NA,Male,22
11,49,,5,0.625,0,2,0.6,"1,1,1,1,1","0,1,1,0,1","1,0,0,1,0",47,2.033255,58,6.581685,65,3,,,,0.6111111111111112,compromise,Male,22
11,50,,5,0.375,1,1.5,0.4,"1,1,1,1,1","0,0,1,1,0","1,1,0,0,1",41,6.183175,41,4.84842,42,3,,,,0,stay,Male,22
11,51,,45,0.125,0,1.6,0.133333333,"9,9,9,9,9","2,2,2,0,0","7,7,7,9,9",20,4.333235,10,2.748385,5,3,,,,0.6666666666666666,compromise,Male,22
11,52,,45,0.875,0,1.6,0.866666667,"9,9,9,9,9","7,8,8,9,7","2,1,1,0,2",89,2.916565,85,5.5984,74,1,,,,0.26666666666666666,compromise,Male,22
11,53,,5,0.375,0,2,0.4,"1,1,1,1,1","0,1,1,0,0","1,0,0,1,1",35,2.466565,40,3.13181,50,2,,,,0.3333333333333333,compromise,Male,22
11,54,,5,0.875,0,1.9,0.8,"1,1,1,1,1","0,1,1,1,1","1,0,0,0,0",50,3.64989,55,2.41522,67,2,,,,0.29411764705882354,compromise,Male,22
12,1,,5,0.625,0,2,0.6,"1,1,1,1,1","1,0,0,1,1","0,1,1,0,0",65,2.179,65,3.162,50,2,,,,0,stay,Male,23
12,2,,5,0.5,1,1.6,0.6,"1,1,1,1,1","1,0,1,0,1","0,1,0,1,0",65,1.86,65,1.726,64,2,,,,0,stay,Male,23
12,3,,5,0.875,0,1.8,0.8,"1,1,1,1,1","1,1,1,1,0","0,0,0,0,1",90,0.784,85,2.108,74,1,,,,0.3125,compromise,Male,23
12,4,,5,0.5,0,1.5,0.6,"1,1,1,1,1","1,0,0,1,1","0,1,1,0,0",50,1.642,60,1.679,68,2,,,,0.5555555555555556,compromise,Male,23
12,5,,5,1,1,2,1,"1,1,1,1,1","1,1,1,1,1","0,0,0,0,0",80,2.093,80,1.733,80,3,,,,NA,NA,Male,23
12,6,,5,0.375,0,1.7,0.4,"1,1,1,1,1","1,0,0,1,0","0,1,1,0,1",70,3.171,70,1.675,53,1,,,,0,stay,Male,23
12,7,,5,0.625,0,1.5,0.6,"1,1,1,1,1","1,1,1,0,0","0,0,0,1,1",65,1.893,65,1.381,50,3,,,,0,stay,Male,23
12,8,,45,0.375,0,2,0.377777778,"9,9,9,9,9","5,4,2,2,4","4,5,7,7,5",40,2.119,35,3.532,24,2,,,,0.3125,compromise,Male,23
12,9,,45,0.875,0,2,0.866666667,"9,9,9,9,9","8,7,7,9,8","1,2,2,0,1",90,1.014,90,1.569,75,3,,,,0,stay,Male,23
12,10,,5,0.125,0,1.5,0.2,"1,1,1,1,1","1,0,0,0,0","0,1,1,1,1",30,1.704,30,1.251,15,2,,,,0,stay,Male,23
12,11,,45,0.125,0,2,0.133333333,"9,9,9,9,9","2,1,2,1,0","7,8,7,8,9",10,2.496,15,1.09,26,1,,,,0.3125,compromise,Male,23
12,12,,45,1,1,2,1,"9,9,9,9,9","9,9,9,9,9","0,0,0,0,0",100,1.013,100,1.095,100,3,,,,NA,NA,Male,23
12,13,,5,0.75,0,1.6,0.8,"1,1,1,1,1","1,1,0,1,1","0,0,1,0,0",80,2.081,80,1.458,65,2,,,,0,stay,Male,23
12,14,,5,0.75,0,1.7,0.8,"1,1,1,1,1","1,0,1,1,1","0,1,0,0,0",75,0.89,75,1.919,90,3,,,,0,stay,Male,23
12,15,,45,0.75,0,1.6,0.755555556,"9,9,9,9,9","7,9,6,6,6","2,0,3,3,3",80,0.96,80,2.493,62,3,,,,0,stay,Male,23
12,16,,45,0.75,1,1.5,0.755555556,"9,9,9,9,9","5,7,7,6,9","4,2,2,3,0",75,1.031,75,1.105,74,3,,,,0,stay,Male,23
12,17,,5,0.125,0,1.9,0.2,"1,1,1,1,1","0,1,0,0,0","1,0,1,1,1",20,1.923,20,1.466,2,1,,,,0,stay,Male,23
12,18,,5,0.375,0,2,0.4,"1,1,1,1,1","0,1,1,0,0","1,0,0,1,1",40,3.195,40,1.188,24,2,,,,0,stay,Male,23
12,19,,5,0.25,0,1.7,0.2,"1,1,1,1,1","0,0,1,0,0","1,1,0,1,1",20,2.076,25,3.999,37,1,,,,0.29411764705882354,compromise,Male,23
12,20,,45,0.875,1,1.9,0.866666667,"9,9,9,9,9","7,8,8,9,7","2,1,1,0,2",90,0.786,90,1.439,92,1,,,,0,stay,Male,23
12,21,,45,0.5,0,1.8,0.511111111,"9,9,9,9,9","2,3,5,8,5","7,6,4,1,4",50,1.211,45,2.729,33,3,,,,0.29411764705882354,compromise,Male,23
12,22,,5,0.625,1,1.5,0.6,"1,1,1,1,1","0,1,1,1,0","1,0,0,0,1",60,2.193,60,2.847,3,1,,,,0,stay,Male,23
12,23,,5,0,1,2,0,"1,1,1,1,1","0,0,0,0,0","1,1,1,1,1",5,3.036,5,1.371,5,3,,,,NA,NA,Male,23
12,24,,5,0.75,0,2,0.8,"1,1,1,1,1","1,1,1,1,0","0,0,0,0,1",85,1.721,85,1.788,68,1,,,,0,stay,Male,23
12,25,,5,0,1,1.8,0,"1,1,1,1,1","0,0,0,0,0","1,1,1,1,1",10,3.822,10,1.566,8,3,,,,0,stay,Male,23
12,26,,45,0.5,0,1.6,0.511111111,"9,9,9,9,9","5,4,5,7,2","4,5,4,2,7",50,1.864,50,1.641,67,1,,,,0,stay,Male,23
12,27,,45,0.125,0,1.5,0.133333333,"9,9,9,9,9","1,3,0,1,1","8,6,9,8,8",10,2.231,15,3.172,28,2,,,,0.2777777777777778,compromise,Male,23
12,28,,45,0.875,0,1.6,0.866666667,"9,9,9,9,9","9,8,9,6,7","0,1,0,3,2",90,0.992,85,3.8,74,1,,,,0.3125,compromise,Male,23
12,29,,5,0.625,0,1.7,0.6,"1,1,1,1,1","0,1,1,0,1","1,0,0,1,0",65,1.957,60,1.904,49,1,,,,0.3125,compromise,Male,23
12,30,,45,0.125,1,1.6,0.133333333,"9,9,9,9,9","1,0,2,1,2","8,9,7,8,7",20,3.174,20,2.605,61,1,,,,0,stay,Male,23
12,31,,5,0.5,0,1.7,0.6,"1,1,1,1,1","1,0,0,1,1","0,1,1,0,0",65,1.165,65,1.774,50,3,,,,0,stay,Male,23
12,32,,5,0.375,0,1.7,0.4,"1,1,1,1,1","0,0,1,0,1","1,1,0,1,0",40,1.12,35,1.98,24,3,,,,0.3125,compromise,Male,23
12,33,,45,0.375,0,2,0.377777778,"9,9,9,9,9","3,0,6,4,4","6,9,3,5,5",45,4.643,40,2.389,30,3,,,,0.3333333333333333,compromise,Male,23
12,34,,45,0.625,0,1.6,0.622222222,"9,9,9,9,9","4,7,5,6,6","5,2,4,3,3",50,2.555,50,1.607,67,1,,,,0,stay,Male,23
12,35,,45,0.625,0,1.5,0.622222222,"9,9,9,9,9","6,7,3,7,5","3,2,6,2,4",50,2.334,50,3.747,65,3,,,,0,stay,Male,23
12,36,,45,0.75,0,1.8,0.755555556,"9,9,9,9,9","7,7,6,7,7","2,2,3,2,2",80,0.949,75,3.417,65,2,,,,0.3333333333333333,compromise,Male,23
12,37,,45,0.25,1,1.6,0.244444444,"9,9,9,9,9","3,4,2,1,1","6,5,7,8,8",70,0.978,70,1.652,13,1,,,,0,stay,Male,23
12,38,,45,0.375,0,1.8,0.377777778,"9,9,9,9,9","3,2,5,5,2","6,7,4,4,7",40,1.875,30,2.036,25,1,,,,0.6666666666666666,compromise,Male,23
12,39,,45,0.625,0,1.7,0.622222222,"9,9,9,9,9","7,3,6,5,7","2,6,3,4,2",80,2.153,70,1.539,63,2,,,,0.5882352941176471,compromise,Male,23
12,40,,5,0.25,0,1.6,0.2,"1,1,1,1,1","0,0,1,0,0","1,1,0,1,1",30,3.77,25,3.225,14,2,,,,0.3125,compromise,Male,23
12,41,,45,0.25,0,1.9,0.244444444,"9,9,9,9,9","2,1,4,3,1","7,8,5,6,8",20,2.464,20,1.711,35,3,,,,0,stay,Male,23
12,42,,45,0.125,0,1.8,0.133333333,"9,9,9,9,9","2,0,0,3,1","7,9,9,6,8",10,1.113,15,1.022,25,3,,,,0.3333333333333333,compromise,Male,23
12,43,,45,0,1,1.9,0,"9,9,9,9,9","0,0,0,0,0","9,9,9,9,9",5,0.776,5,1.165,3,3,,,,0,stay,Male,23
12,44,,5,0.125,0,2,0.2,"1,1,1,1,1","0,0,0,1,0","1,1,1,0,1",20,2.792,15,2.352,5,3,,,,0.3333333333333333,compromise,Male,23
12,45,,5,0.875,0,1.9,0.8,"1,1,1,1,1","1,1,1,1,0","0,0,0,0,1",15,2.769,20,2.533,31,2,,,,0.3125,compromise,Male,23
12,46,,5,0.5,0,2,0.6,"1,1,1,1,1","0,0,1,1,1","1,1,0,0,0",30,3.843,35,2.476,48,1,,,,0.2777777777777778,compromise,Male,23
12,47,,45,0.875,0,1.6,0.866666667,"9,9,9,9,9","9,8,6,8,8","0,1,3,1,1",90,1.83,85,2.975,74,2,,,,0.3125,compromise,Male,23
12,48,,5,0.375,1,2,0.4,"1,1,1,1,1","0,1,0,0,1","1,0,1,1,0",55,4.435,55,3.339,3,1,,,,0,stay,Male,23
12,49,,45,0.25,0,1.7,0.244444444,"9,9,9,9,9","1,3,3,2,2","8,6,6,7,7",30,1.868,25,1.667,14,2,,,,0.3125,compromise,Male,23
12,50,,45,0.25,0,1.7,0.244444444,"9,9,9,9,9","3,4,0,1,3","6,5,9,8,6",40,5.174,35,2.649,24,1,,,,0.3125,compromise,Male,23
12,51,,45,0.5,0,1.8,0.511111111,"9,9,9,9,9","4,6,4,5,4","5,3,5,4,5",40,3.059,45,2.347,58,2,,,,0.2777777777777778,compromise,Male,23
12,52,,5,0.25,0,1.5,0.2,"1,1,1,1,1","0,0,1,0,0","1,1,0,1,1",50,8.516,40,4.052,33,3,,,,0.5882352941176471,compromise,Male,23
12,53,,45,0.75,0,1.8,0.755555556,"9,9,9,9,9","7,8,6,8,5","2,1,3,1,4",40,2.534,45,4.49,55,1,,,,0.3333333333333333,compromise,Male,23
12,54,,5,0.875,0,1.8,0.8,"1,1,1,1,1","1,1,0,1,1","0,0,1,0,0",40,3.161,45,2.521,56,3,,,,0.3125,compromise,Male,23
13,1,,5,0.25,0,2,0.2,"1,1,1,1,1","1,0,0,0,0","0,1,1,1,1",10,0.7642,25,3.4813,28,2,,,,0.8333333333333334,compromise,Male,20
13,2,,45,0.5,0,1.5,0.511111111,"9,9,9,9,9","5,3,6,6,3","4,6,3,3,6",70,2.1492,65,3.5483,55,1,,,,0.3333333333333333,compromise,Male,20
13,3,,45,0.875,0,1.9,0.866666667,"9,9,9,9,9","6,8,8,9,8","3,1,1,0,1",90,1.6164,90,1.8144,74,1,,,,0,stay,Male,20
13,4,,5,0.625,0,1.6,0.6,"1,1,1,1,1","1,1,0,0,1","0,0,1,1,0",60,3.7993,60,3.7646,75,1,,,,0,stay,Male,20
13,5,,5,0,1,1.6,0,"1,1,1,1,1","0,0,0,0,0","1,1,1,1,1",5,3.516,7,2.5644,7,3,,,,1,copy,Male,20
13,6,,5,0.375,0,1.6,0.4,"1,1,1,1,1","0,0,0,1,1","1,1,1,0,0",15,1.5828,20,2.0311,30,1,,,,0.3333333333333333,compromise,Male,20
13,7,,45,0.125,0,1.7,0.133333333,"9,9,9,9,9","1,0,3,1,1","8,9,6,8,8",15,1.4994,15,5.7646,0,3,,,,0,stay,Male,20
13,8,,45,0.625,0,1.8,0.622222222,"9,9,9,9,9","5,3,8,6,6","4,6,1,3,3",70,2.1826,65,3.6314,55,2,,,,0.3333333333333333,compromise,Male,20
13,9,,5,0.875,0,1.9,0.8,"1,1,1,1,1","1,1,0,1,1","0,0,1,0,0",60,3.0493,75,2.1311,75,1,,,,1,copy,Male,20
13,10,,45,0.75,0,2,0.755555556,"9,9,9,9,9","8,6,9,6,5","1,3,0,3,4",80,1.6328,70,2.2312,64,2,,,,0.625,compromise,Male,20
13,11,,5,0.125,0,1.8,0.2,"1,1,1,1,1","0,0,0,0,1","1,1,1,1,0",5,2.8993,15,1.9145,20,2,,,,0.6666666666666666,compromise,Male,20
13,12,,45,0.125,0,1.9,0.133333333,"9,9,9,9,9","0,3,1,1,1","9,6,8,8,8",8,1.3326,14,4.4645,25,2,,,,0.35294117647058826,compromise,Male,20
13,13,,45,0.875,1,1.5,0.866666667,"9,9,9,9,9","8,8,8,8,7","1,1,1,1,2",80,2.216,80,3.0478,78,2,,,,0,stay,Male,20
13,14,,5,0.5,1,1.5,0.6,"1,1,1,1,1","0,0,1,1,1","1,1,0,0,0",40,2.566,40,2.7814,40,2,,,,NA,NA,Male,20
13,15,,5,1,1,1.5,1,"1,1,1,1,1","1,1,1,1,1","0,0,0,0,0",88,3.9828,95,3.9147,90,3,,,,3.5,copy,Male,20
13,16,,45,0.625,0,2,0.622222222,"9,9,9,9,9","5,4,7,6,6","4,5,2,3,3",80,3.3326,75,4.9844,62,3,,,,0.2777777777777778,compromise,Male,20
13,17,,45,1,1,1.9,1,"9,9,9,9,9","9,9,9,9,9","0,0,0,0,0",99,2.0162,99,4.7978,100,3,,,,0,stay,Male,20
13,18,,45,0.75,0,2,0.755555556,"9,9,9,9,9","6,6,8,8,6","3,3,1,1,3",85,1.766,83,4.7814,70,3,,,,0.13333333333333333,compromise,Male,20
13,19,,45,0.25,0,1.7,0.244444444,"9,9,9,9,9","2,2,3,2,2","7,7,6,7,7",17,3.066,24,2.7314,33,3,,,,0.4375,compromise,Male,20
13,20,,45,0.75,0,1.7,0.755555556,"9,9,9,9,9","7,8,5,7,7","2,1,4,2,2",76,2.4828,76,3.1315,59,1,,,,0,stay,Male,20
13,21,,5,0.75,0,1.6,0.8,"1,1,1,1,1","0,1,1,1,1","1,0,0,0,0",80,2.216,74,3.4815,62,1,,,,0.3333333333333333,compromise,Male,20
13,22,,45,0.5,0,1.7,0.511111111,"9,9,9,9,9","6,5,2,6,4","3,4,7,3,5",75,2.8827,70,2.8814,60,2,,,,0.3333333333333333,compromise,Male,20
13,23,,5,0.75,0,1.5,0.8,"1,1,1,1,1","0,1,1,1,1","1,0,0,0,0",90,2.016,80,2.8474,75,2,,,,0.6666666666666666,compromise,Male,20
13,24,,45,0.125,1,1.8,0.133333333,"9,9,9,9,9","1,1,2,1,1","8,8,7,8,8",8,4.6331,20,4.2342,50,1,,,,0.2857142857142857,compromise,Male,20
13,25,,45,0.25,1,1.8,0.244444444,"9,9,9,9,9","3,0,3,3,2","6,9,6,6,7",12,1.8493,2,8.4314,63,1,,,,-0.196078431,stay,Male,20
13,26,,5,0.375,0,1.7,0.4,"1,1,1,1,1","1,0,0,0,1","0,1,1,1,0",5,4.2828,20,3.6312,21,3,,,,0.9375,compromise,Male,20
13,27,,5,0.25,0,1.8,0.2,"1,1,1,1,1","0,0,0,1,0","1,1,1,0,1",10,0.5827,15,3.398,25,1,,,,0.3333333333333333,compromise,Male,20
13,28,,5,0.125,0,1.5,0.2,"1,1,1,1,1","0,0,1,0,0","1,1,0,1,1",4,2.3828,16,3.6482,19,1,,,,0.8,compromise,Male,20
13,29,,45,0.125,0,1.5,0.133333333,"9,9,9,9,9","2,1,2,0,1","7,8,7,9,8",14,3.216,15,2.5815,0,1,,,,-0.071428571,stay,Male,20
13,30,,45,0.375,0,1.6,0.377777778,"9,9,9,9,9","2,5,3,5,2","7,4,6,4,7",23,2.7161,33,2.7481,40,2,,,,0.5882352941176471,compromise,Male,20
13,31,,5,0.875,0,1.6,0.8,"1,1,1,1,1","1,1,1,1,0","0,0,0,0,1",80,1.566,95,2.7813,95,3,,,,1,copy,Male,20
13,32,,45,0.25,0,2,0.244444444,"9,9,9,9,9","4,2,3,0,2","5,7,6,9,7",25,2.5161,15,4.6148,10,2,,,,0.6666666666666666,compromise,Male,20
13,33,,5,0.625,1,1.5,0.6,"1,1,1,1,1","1,0,0,1,1","0,1,1,0,0",20,3.5326,20,2.8648,22,2,,,,0,stay,Male,20
13,34,,45,0.875,0,1.9,0.866666667,"9,9,9,9,9","6,8,8,9,8","3,1,1,0,1",90,0.8161,90,1.9813,75,3,,,,0,stay,Male,20
13,35,,5,0.5,0,1.9,0.6,"1,1,1,1,1","0,1,0,1,1","1,0,1,0,0",40,4.0494,60,2.7314,55,3,,,,1.3333333333333333,copy,Male,20
13,36,,45,0.25,0,1.8,0.244444444,"9,9,9,9,9","4,1,1,1,4","5,8,8,8,5",20,0.666,20,1.7814,35,1,,,,0,stay,Male,20
13,37,,45,0,1,1.7,0,"9,9,9,9,9","0,0,0,0,0","9,9,9,9,9",1,1.1827,1,2.1815,1,3,,,,NA,NA,Male,20
13,38,,45,0.875,0,2,0.866666667,"9,9,9,9,9","8,7,7,9,8","1,2,2,0,1",90,1.0993,90,2.2976,74,2,,,,0,stay,Male,20
13,39,,5,0.25,0,1.9,0.2,"1,1,1,1,1","0,0,0,0,1","1,1,1,1,0",10,0.602,25,2.729,26,3,,,,0.9375,compromise,Male,20
13,40,,5,0.75,0,1.5,0.8,"1,1,1,1,1","1,1,0,1,1","0,0,1,0,0",15,4.0522,24,4.1153,33,3,,,,0.5,compromise,Male,20
13,41,,45,0.375,0,1.7,0.377777778,"9,9,9,9,9","3,7,3,1,3","6,2,6,8,6",45,3.066,40,2.2481,30,3,,,,0.3333333333333333,compromise,Male,20
13,42,,5,0.5,0,1.5,0.6,"1,1,1,1,1","1,0,1,0,1","0,1,0,1,0",65,3.5661,50,2.2481,48,2,,,,0.8823529411764706,compromise,Male,20
13,43,,45,0.75,1,1.7,0.755555556,"9,9,9,9,9","7,6,7,7,7","2,3,2,2,2",90,1.3828,90,2.0681,25,1,,,,0,stay,Male,20
13,44,,5,0.625,0,2,0.6,"1,1,1,1,1","1,0,1,0,1","0,1,0,1,0",5,2.2005,24,5.3788,21,2,,,,1.1875,copy,Male,20
13,45,,5,0.5,0,1.5,0.6,"1,1,1,1,1","0,0,1,1,1","1,1,0,0,0",40,1.1995,46,4.9147,58,1,,,,0.3333333333333333,compromise,Male,20
13,46,,45,0.625,0,2,0.622222222,"9,9,9,9,9","3,7,5,6,7","6,2,4,3,2",80,0.8994,80,5.5481,65,1,,,,0,stay,Male,20
13,47,,5,0.375,1,1.9,0.4,"1,1,1,1,1","1,1,0,0,0","0,0,1,1,1",20,0.9328,50,6.0149,79,1,,,,0.5084745762711864,compromise,Male,20
13,48,,5,0.625,0,1.9,0.6,"1,1,1,1,1","0,0,1,1,1","1,1,0,0,0",60,2.2327,75,2.1808,76,3,,,,0.9375,compromise,Male,20
13,49,,5,0.125,0,1.7,0.2,"1,1,1,1,1","0,0,0,1,0","1,1,1,0,1",15,2.0999,15,3.9811,0,3,,,,0,stay,Male,20
13,50,,45,0.5,0,1.8,0.511111111,"9,9,9,9,9","5,5,5,2,6","4,4,4,7,3",60,2.3327,50,4.0647,43,3,,,,0.5882352941176471,compromise,Male,20
13,51,,45,0.375,0,1.8,0.377777778,"9,9,9,9,9","6,2,4,2,3","3,7,5,7,6",45,1.7463,40,2.2813,30,1,,,,0.3333333333333333,compromise,Male,20
13,52,,5,0.375,0,1.7,0.4,"1,1,1,1,1","0,1,0,1,0","1,0,1,0,1",15,0.9827,25,2.1648,31,2,,,,0.625,compromise,Male,20
13,53,,5,0.875,0,1.9,0.8,"1,1,1,1,1","0,1,1,1,1","1,0,0,0,0",40,3.3161,60,2.298,55,2,,,,1.3333333333333333,copy,Male,20
13,54,,5,0,1,1.5,0,"1,1,1,1,1","0,0,0,0,0","1,1,1,1,1",5,1.5329,5,3.1146,4,3,,,,0,stay,Male,20
14,1,,45,0.625,0,2,0.622222222,"9,9,9,9,9","4,7,8,3,6","5,2,1,6,3",60,3.9329,60,6.9492,75,2,,,,0,stay,Male,27
14,2,,45,0.25,0,1.9,0.244444444,"9,9,9,9,9","4,1,2,0,4","5,8,7,9,5",20,1.6023,23,4.2462,37,1,,,,0.17647058823529413,compromise,Male,27
14,3,,45,0.875,0,1.8,0.866666667,"9,9,9,9,9","6,9,6,9,9","3,0,3,0,0",90,1.9332,80,8.3847,73,3,,,,0.5882352941176471,compromise,Male,27
14,4,,45,0.375,0,1.5,0.377777778,"9,9,9,9,9","4,4,4,3,2","5,5,5,6,7",35,2.0001,42,5.0986,51,3,,,,0.4375,compromise,Male,27
14,5,,45,0.75,1,1.6,0.755555556,"9,9,9,9,9","9,8,6,8,3","0,1,3,1,6",75,2.4665,74,3.9488,73,3,,,,0.5,compromise,Male,27
14,6,,5,0.5,0,1.5,0.6,"1,1,1,1,1","1,1,0,0,1","0,0,1,1,0",60,2.4836,50,5.9985,42,2,,,,0.5555555555555556,compromise,Male,27
14,7,,5,0.375,0,1.9,0.4,"1,1,1,1,1","1,0,0,0,1","0,1,1,1,0",40,3.4333,35,3.6484,22,1,,,,0.2777777777777778,compromise,Male,27
14,8,,45,0.125,0,2,0.133333333,"9,9,9,9,9","1,0,1,3,1","8,9,8,6,8",15,1.4834,12,6.7842,0,2,,,,0.2,compromise,Male,27
14,9,,45,0.125,0,2,0.133333333,"9,9,9,9,9","2,1,0,3,0","7,8,9,6,9",20,1.8499,15,2.6484,5,1,,,,0.3333333333333333,compromise,Male,27
14,10,,5,0,1,1.7,0,"1,1,1,1,1","0,0,0,0,0","1,1,1,1,1",5,2.0524,4,4.113,3,3,,,,0.5,compromise,Male,27
14,11,,45,0.875,0,1.9,0.866666667,"9,9,9,9,9","7,9,7,8,8","2,0,2,1,1",80,1.333,85,4.2518,97,2,,,,0.29411764705882354,compromise,Male,27
14,12,,5,0.5,1,1.7,0.6,"1,1,1,1,1","0,1,0,1,1","1,0,1,0,0",70,7.5524,50,8.9637,5,1,,,,0.3076923076923077,compromise,Male,27
14,13,,45,0.25,1,1.7,0.244444444,"9,9,9,9,9","1,2,1,5,2","8,7,8,4,7",70,0.9834,60,3.815,8,1,,,,0.16129032258064516,compromise,Male,27
14,14,,45,0.375,0,1.8,0.377777778,"9,9,9,9,9","4,2,3,3,5","5,7,6,6,4",65,1.8667,60,3.4817,50,2,,,,0.3333333333333333,compromise,Male,27
14,15,,5,1,1,1.8,1,"1,1,1,1,1","1,1,1,1,1","0,0,0,0,0",95,2.2356,95,2.8629,95,3,,,,NA,NA,Male,27
14,16,,5,0.75,0,1.8,0.8,"1,1,1,1,1","1,1,1,0,1","0,0,0,1,0",80,2.4836,75,3.9982,65,1,,,,0.3333333333333333,compromise,Male,27
14,17,,45,0.875,0,1.8,0.866666667,"9,9,9,9,9","8,8,9,8,6","1,1,0,1,3",85,2.3665,85,3.8654,100,1,,,,0,stay,Male,27
14,18,,5,0,1,1.8,0,"1,1,1,1,1","0,0,0,0,0","1,1,1,1,1",5,3.1333,5,4.1008,4,3,,,,0,stay,Male,27
14,19,,5,0.125,0,1.7,0.2,"1,1,1,1,1","1,0,0,0,0","0,1,1,1,1",20,1.4519,13,4.2135,5,2,,,,0.4666666666666667,compromise,Male,27
14,20,,45,0.5,0,1.9,0.511111111,"9,9,9,9,9","5,3,6,7,2","4,6,3,2,7",60,1.4668,55,2.8316,42,2,,,,0.2777777777777778,compromise,Male,27
14,21,,5,0.625,0,1.5,0.6,"1,1,1,1,1","1,0,1,0,1","0,1,0,1,0",65,6.65,60,2.2653,50,3,,,,0.3333333333333333,compromise,Male,27
14,22,,5,0.375,0,1.5,0.4,"1,1,1,1,1","0,0,1,1,0","1,1,0,0,1",40,2.0835,30,4.0485,24,3,,,,0.625,compromise,Male,27
14,23,,5,0.5,0,1.8,0.6,"1,1,1,1,1","1,0,1,1,0","0,1,0,0,1",60,1.7001,55,4.5013,44,1,,,,0.3125,compromise,Male,27
14,24,,5,0.5,0,1.6,0.6,"1,1,1,1,1","1,1,0,0,1","0,0,1,1,0",60,1.2999,55,3.032,44,3,,,,0.3125,compromise,Male,27
14,25,,45,0.125,1,1.5,0.133333333,"9,9,9,9,9","0,2,1,2,1","9,7,8,7,8",15,0.8999,15,2.032,15,3,,,,NA,NA,Male,27
14,26,,5,0.375,0,1.6,0.4,"1,1,1,1,1","1,0,0,0,1","0,1,1,1,0",40,2.4,35,3.6676,25,2,,,,0.3333333333333333,compromise,Male,27
14,27,,45,0.25,0,1.6,0.244444444,"9,9,9,9,9","1,3,3,3,1","8,6,6,6,8",35,1.5,27,2.4675,20,3,,,,0.5333333333333333,compromise,Male,27
14,28,,45,0,1,1.6,0,"9,9,9,9,9","0,0,0,0,0","9,9,9,9,9",0,0.7831,0,1.6179,0,3,,,,NA,NA,Male,27
14,29,,45,0.125,0,1.8,0.133333333,"9,9,9,9,9","1,1,0,2,2","8,8,9,7,7",10,1.169,14,6.2145,27,3,,,,0.23529411764705882,compromise,Male,27
14,30,,45,0.75,0,1.9,0.755555556,"9,9,9,9,9","7,8,5,8,6","2,1,4,1,3",70,0.7164,75,2.6155,85,3,,,,0.3333333333333333,compromise,Male,27
14,31,,5,0.25,0,1.5,0.2,"1,1,1,1,1","0,0,0,1,0","1,1,1,0,1",20,0.6497,27,6.1179,37,2,,,,0.4117647058823529,compromise,Male,27
14,32,,5,0.375,1,1.7,0.4,"1,1,1,1,1","1,0,0,1,0","0,1,1,0,1",40,2.6835,50,3.782,85,1,,,,0.2222222222222222,compromise,Male,27
14,33,,45,0.75,0,1.9,0.755555556,"9,9,9,9,9","6,6,7,7,8","3,3,2,2,1",75,1.5501,72,5.3171,59,2,,,,0.1875,compromise,Male,27
14,34,,5,0.625,0,1.5,0.6,"1,1,1,1,1","1,1,0,0,1","0,0,1,1,0",60,0.6165,67,4.3986,75,2,,,,0.4666666666666667,compromise,Male,27
14,35,,5,0.625,1,1.5,0.6,"1,1,1,1,1","0,1,1,0,1","1,0,0,1,0",60,0.6855,60,2.2654,61,2,,,,0,stay,Male,27
14,36,,45,1,1,1.5,1,"9,9,9,9,9","9,9,9,9,9","0,0,0,0,0",100,0.8833,100,1.6841,100,3,,,,NA,NA,Male,27
14,37,,5,0.25,0,1.9,0.2,"1,1,1,1,1","1,0,0,0,0","0,1,1,1,1",20,0.5997,20,2.9512,37,1,,,,0,stay,Male,27
14,38,,5,0.875,0,1.5,0.8,"1,1,1,1,1","1,0,1,1,1","0,1,0,0,0",80,0.7188,90,3.2155,97,3,,,,0.5882352941176471,compromise,Male,27
14,39,,5,0.625,0,1.5,0.6,"1,1,1,1,1","1,1,0,0,1","0,0,1,1,0",60,1.0668,60,5.2009,75,1,,,,0,stay,Male,27
14,40,,5,0.25,0,1.9,0.2,"1,1,1,1,1","0,0,0,0,1","1,1,1,1,0",20,0.6165,30,4.3823,35,3,,,,0.6666666666666666,compromise,Male,27
14,41,,45,0.75,0,1.8,0.755555556,"9,9,9,9,9","6,6,6,8,8","3,3,3,1,1",80,1.6022,77,4.7966,63,1,,,,0.17647058823529413,compromise,Male,27
14,42,,5,0.125,0,2,0.2,"1,1,1,1,1","0,1,0,0,0","1,0,1,1,1",20,0.6167,20,6.6986,3,1,,,,0,stay,Male,27
14,43,,45,0.25,0,1.9,0.244444444,"9,9,9,9,9","2,3,2,2,2","7,6,7,7,7",25,2.0018,18,4.8492,10,2,,,,0.4666666666666667,compromise,Male,27
14,44,,45,0.875,1,1.6,0.866666667,"9,9,9,9,9","8,6,9,8,8","1,3,0,1,1",90,1.7166,75,5.6985,20,1,,,,0.21428571428571427,compromise,Male,27
14,45,,45,0.5,0,1.6,0.511111111,"9,9,9,9,9","3,6,4,5,5","6,3,5,4,4",50,1.4167,50,3.882,65,1,,,,0,stay,Male,27
14,46,,5,0.125,0,1.5,0.2,"1,1,1,1,1","0,0,0,1,0","1,1,1,0,1",20,0.6167,10,3.2653,2,3,,,,0.5555555555555556,compromise,Male,27
14,47,,5,0.75,0,1.5,0.8,"1,1,1,1,1","1,1,0,1,1","0,0,1,0,0",80,0.65,70,3.2651,65,3,,,,0.6666666666666666,compromise,Male,27
14,48,,45,0.375,0,1.7,0.377777778,"9,9,9,9,9","4,3,4,4,2","5,6,5,5,7",35,1.3666,35,3.0177,50,1,,,,0,stay,Male,27
14,49,,5,0.875,0,1.7,0.8,"1,1,1,1,1","1,1,1,1,0","0,0,0,0,1",80,0.6165,85,3.0654,96,2,,,,0.3125,compromise,Male,27
14,50,,45,0.625,0,1.5,0.622222222,"9,9,9,9,9","5,5,6,3,9","4,4,3,6,0",65,1.1001,65,5.2657,50,1,,,,0,stay,Male,27
14,51,,5,0.875,0,1.9,0.8,"1,1,1,1,1","1,1,1,0,1","0,0,0,1,0",80,0.7188,80,2.1629,97,1,,,,0,stay,Male,27
14,52,,5,0.75,0,1.6,0.8,"1,1,1,1,1","1,1,1,0,1","0,0,0,1,0",80,0.7352,70,4.8798,65,2,,,,0.6666666666666666,compromise,Male,27
14,53,,45,0.625,0,1.6,0.622222222,"9,9,9,9,9","7,5,5,6,5","2,4,4,3,4",65,1.7331,60,4.5012,50,3,,,,0.3333333333333333,compromise,Male,27
14,54,,45,0.5,0,1.8,0.511111111,"9,9,9,9,9","4,6,5,4,4","5,3,4,5,5",50,1.4335,60,2.1818,65,3,,,,0.6666666666666666,compromise,Male,27
15,1,,45,0.75,1,1.9,0.755555556,"9,9,9,9,9","5,5,8,7,9","4,4,1,2,0",69,3.469685,69,4.605735,69,3,,,,NA,NA,Male,21
15,2,,45,0.875,0,1.7,0.866666667,"9,9,9,9,9","6,7,9,8,9","3,2,0,1,0",82,2.389015,82,3.706295,100,1,,,,0,stay,Male,21
15,3,,5,0.375,1,1.7,0.4,"1,1,1,1,1","1,0,1,0,0","0,1,0,1,1",40,3.832865,40,3.62996,96,1,,,,0,stay,Male,21
15,4,,5,0.625,0,1.7,0.6,"1,1,1,1,1","1,0,1,0,1","0,1,0,1,0",60,2.784945,65,3.914395,75,3,,,,0.3333333333333333,compromise,Male,21
15,5,,5,0.5,0,1.5,0.6,"1,1,1,1,1","1,0,0,1,1","0,1,1,0,0",50,2.367795,50,2.71323,66,1,,,,0,stay,Male,21
15,6,,45,0.375,0,1.5,0.377777778,"9,9,9,9,9","6,3,2,3,3","3,6,7,6,6",35,7.026805,35,4.69247,53,2,,,,0,stay,Male,21
15,7,,5,0.5,1,1.5,0.6,"1,1,1,1,1","1,0,1,1,0","0,1,0,0,1",60,2.78483,60,3.22311,19,1,,,,0,stay,Male,21
15,8,,45,0.5,0,2,0.511111111,"9,9,9,9,9","4,5,5,3,6","5,4,4,6,3",50,2.130955,50,3.741735,33,1,,,,0,stay,Male,21
15,9,,5,0.875,0,1.9,0.8,"1,1,1,1,1","0,1,1,1,1","1,0,0,0,0",85,2.97215,85,3.671495,100,1,,,,0,stay,Male,21
15,10,,5,0.125,0,1.9,0.2,"1,1,1,1,1","0,0,0,1,0","1,1,1,0,1",15,3.637875,15,3.761785,0,2,,,,0,stay,Male,21
15,11,,5,1,1,1.7,1,"1,1,1,1,1","1,1,1,1,1","0,0,0,0,0",95,2.69421,95,5.552715,97,3,,,,0,stay,Male,21
15,12,,45,0.375,0,2,0.377777778,"9,9,9,9,9","2,3,5,5,2","7,6,4,4,7",40,3.347645,35,3.15745,24,3,,,,0.3125,compromise,Male,21
15,13,,5,0.875,0,1.7,0.8,"1,1,1,1,1","0,1,1,1,1","1,0,0,0,0",75,3.2153,80,3.11001,90,3,,,,0.3333333333333333,compromise,Male,21
15,14,,5,0.25,0,1.9,0.2,"1,1,1,1,1","1,0,0,0,0","0,1,1,1,1",15,3.430275,20,3.57291,30,3,,,,0.3333333333333333,compromise,Male,21
15,15,,45,0.25,0,1.5,0.244444444,"9,9,9,9,9","2,3,3,1,2","7,6,6,8,7",15,5.243155,15,2.997655,30,1,,,,0,stay,Male,21
15,16,,45,0.5,0,1.6,0.511111111,"9,9,9,9,9","5,6,4,4,4","4,3,5,5,5",60,3.70057,55,3.65144,44,2,,,,0.3125,compromise,Male,21
15,17,,45,0.875,1,1.6,0.866666667,"9,9,9,9,9","8,7,9,8,7","1,2,0,1,2",87,3.14557,87,3.12992,85,2,,,,0,stay,Male,21
15,18,,45,0.75,0,1.6,0.755555556,"9,9,9,9,9","7,8,6,6,7","2,1,3,3,2",77,4.338925,69,4.602965,60,2,,,,0.47058823529411764,compromise,Male,21
15,19,,45,1,1,1.5,1,"9,9,9,9,9","9,9,9,9,9","0,0,0,0,0",98,4.297375,98,3.144615,96,3,,,,0,stay,Male,21
15,20,,45,0.25,0,2,0.244444444,"9,9,9,9,9","2,2,5,1,1","7,7,4,8,8",24,3.923565,30,3.03911,40,3,,,,0.375,compromise,Male,21
15,21,,5,0.75,0,1.9,0.8,"1,1,1,1,1","1,1,1,0,1","0,0,0,1,0",80,6.88802,75,5.810245,64,2,,,,0.3125,compromise,Male,21
15,22,,45,0.875,0,1.5,0.866666667,"9,9,9,9,9","6,7,9,8,9","3,2,0,1,0",90,4.396485,87,5.087765,75,3,,,,0.2,compromise,Male,21
15,23,,5,0.5,0,1.7,0.6,"1,1,1,1,1","1,1,0,1,0","0,0,1,0,1",65,4.793765,64,5.64857,50,2,,,,0.066666667,compromise,Male,21
15,24,,5,0.75,0,1.8,0.8,"1,1,1,1,1","1,1,1,0,1","0,0,0,1,0",80,2.49301,73,3.97702,62,3,,,,0.3888888888888889,compromise,Male,21
15,25,,5,0.125,0,1.7,0.2,"1,1,1,1,1","0,1,0,0,0","1,0,1,1,1",35,4.55519,35,3.714305,20,1,,,,0,stay,Male,21
15,26,,5,0.25,0,1.5,0.2,"1,1,1,1,1","0,0,1,0,0","1,1,0,1,1",20,3.47143,20,3.63011,35,1,,,,0,stay,Male,21
15,27,,45,0,1,1.9,0,"9,9,9,9,9","0,0,0,0,0","9,9,9,9,9",3,2.131995,3,3.34583,2,3,,,,0,stay,Male,21
15,28,,45,0.75,0,1.6,0.755555556,"9,9,9,9,9","6,9,6,5,8","3,0,3,4,1",80,2.486015,80,3.69203,63,1,,,,0,stay,Male,21
15,29,,45,0.625,0,1.9,0.622222222,"9,9,9,9,9","6,7,5,4,6","3,2,4,5,3",69,3.617995,67,4.241035,51,2,,,,0.1111111111111111,compromise,Male,21
15,30,,5,0.375,0,1.7,0.4,"1,1,1,1,1","0,1,0,1,0","1,0,1,0,1",45,3.603935,38,4.7477,30,3,,,,0.4666666666666667,compromise,Male,21
15,31,,45,0.625,0,2,0.622222222,"9,9,9,9,9","7,8,4,6,3","2,1,5,3,6",67,3.04843,67,2.74165,50,1,,,,0,stay,Male,21
15,32,,5,0.375,0,1.8,0.4,"1,1,1,1,1","0,1,0,1,0","1,0,1,0,1",50,2.70044,45,3.457115,35,2,,,,0.3333333333333333,compromise,Male,21
15,33,,45,0.875,0,1.5,0.866666667,"9,9,9,9,9","9,9,8,7,6","0,0,1,2,3",89,2.90257,87,4.023725,74,2,,,,0.13333333333333333,compromise,Male,21
15,34,,45,0.625,0,1.7,0.622222222,"9,9,9,9,9","7,5,5,6,5","2,4,4,3,4",55,3.916075,64,3.623305,72,3,,,,0.5294117647058824,compromise,Male,21
15,35,,45,0.125,0,1.8,0.133333333,"9,9,9,9,9","0,3,0,2,1","9,6,9,7,8",19,4.87468,19,3.6447,2,1,,,,0,stay,Male,21
15,36,,45,0.25,0,2,0.244444444,"9,9,9,9,9","1,5,1,1,3","8,4,8,8,6",35,2.302965,35,4.21552,18,2,,,,0,stay,Male,21
15,37,,45,0.75,0,1.8,0.755555556,"9,9,9,9,9","6,9,7,7,5","3,0,2,2,4",80,2.826125,70,3.324685,62,3,,,,0.5555555555555556,compromise,Male,21
15,38,,45,0.125,1,1.5,0.133333333,"9,9,9,9,9","2,0,1,2,1","7,9,8,7,8",25,3.27711,25,3.63057,75,1,,,,0,stay,Male,21
15,39,,5,0.25,0,1.9,0.2,"1,1,1,1,1","0,0,1,0,0","1,1,0,1,1",20,4.170415,23,6.004815,37,2,,,,0.17647058823529413,compromise,Male,21
15,40,,5,0.375,0,1.5,0.4,"1,1,1,1,1","1,1,0,0,0","0,0,1,1,1",35,2.60482,36,2.52575,50,1,,,,0.066666667,compromise,Male,21
15,41,,5,0.625,1,1.6,0.6,"1,1,1,1,1","1,0,1,1,0","0,1,0,0,1",40,3.881105,45,6.065565,40,1,,,,Inf,copy,Male,21
15,42,,5,0,1,1.5,0,"1,1,1,1,1","0,0,0,0,0","1,1,1,1,1",3,3.078235,2,2.4546,1,3,,,,0.5,compromise,Male,21
15,43,,45,0.25,1,1.6,0.244444444,"9,9,9,9,9","4,1,3,0,3","5,8,6,9,6",15,3.04832,15,2.55455,95,1,,,,0,stay,Male,21
15,44,,5,0,1,1.6,0,"1,1,1,1,1","0,0,0,0,0","1,1,1,1,1",3,3.59032,3,1.9907,1,3,,,,0,stay,Male,21
15,45,,5,0.125,0,1.9,0.2,"1,1,1,1,1","0,0,1,0,0","1,1,0,1,1",20,2.464425,15,4.11695,4,3,,,,0.3125,compromise,Male,21
15,46,,5,0.75,0,1.6,0.8,"1,1,1,1,1","1,1,1,1,0","0,0,0,0,1",80,2.23402,80,4.39375,65,1,,,,0,stay,Male,21
15,47,,45,0.125,0,1.8,0.133333333,"9,9,9,9,9","0,1,2,3,0","9,8,7,6,9",10,2.33338,15,2.199835,28,3,,,,0.2777777777777778,compromise,Male,21
15,48,,5,0.5,0,2,0.6,"1,1,1,1,1","1,1,0,0,1","0,0,1,1,0",50,2.540935,42,3.13746,35,3,,,,0.5333333333333333,compromise,Male,21
15,49,,5,0.625,0,1.8,0.6,"1,1,1,1,1","1,0,0,1,1","0,1,1,0,0",65,2.00695,65,2.10196,49,1,,,,0,stay,Male,21
15,50,,45,0.5,0,1.6,0.511111111,"9,9,9,9,9","7,5,3,4,4","2,4,6,5,5",50,1.99274,45,2.706065,33,3,,,,0.29411764705882354,compromise,Male,21
15,51,,45,0.375,0,1.9,0.377777778,"9,9,9,9,9","2,4,2,5,4","7,5,7,4,5",50,1.95133,50,2.414285,35,1,,,,0,stay,Male,21
15,52,,5,0.875,0,1.5,0.8,"1,1,1,1,1","1,1,1,1,0","0,0,0,0,1",82,3.77694,82,2.60983,100,2,,,,0,stay,Male,21
15,53,,5,0.625,0,1.7,0.6,"1,1,1,1,1","1,0,1,1,0","0,1,0,0,1",45,2.16666,50,2.29665,60,2,,,,0.3333333333333333,compromise,Male,21
15,54,,45,0.125,0,1.5,0.133333333,"9,9,9,9,9","1,3,1,0,1","8,6,8,9,8",20,4.01295,15,2.19931,4,2,,,,0.3125,compromise,Male,21
16,1,,5,0,1,1.7,0,"1,1,1,1,1","0,0,0,0,0","1,1,1,1,1",20,4.6309,20,5.9049,18,3,,,,0,stay,Male,22
16,2,,5,1,1,1.7,1,"1,1,1,1,1","1,1,1,1,1","0,0,0,0,0",17,4.735,17,5.0975,18,3,,,,0,stay,Male,22
16,3,,5,0.375,0,2,0.4,"1,1,1,1,1","0,1,0,1,0","1,0,1,0,1",10,4.3992000000000004,10,3.9591,25,2,,,,0,stay,Male,22
16,4,,5,0.25,0,1.9,0.2,"1,1,1,1,1","0,1,0,0,0","1,0,1,1,1",10,4.506,5,3.7323,25,1,,,,-0.333333333,stay,Male,22
16,5,,45,0.25,0,1.9,0.244444444,"9,9,9,9,9","2,2,3,3,1","7,7,6,6,8",40,4.3717,38,6.5603,25,1,,,,0.13333333333333333,compromise,Male,22
16,6,,5,0.875,0,1.6,0.8,"1,1,1,1,1","1,1,0,1,1","0,0,1,0,0",15,5.5353,7,4.9681,32,1,,,,-0.470588235,stay,Male,22
16,7,,45,0.5,0,1.5,0.511111111,"9,9,9,9,9","7,5,4,4,3","2,4,5,5,6",48,4.3546,48,4.7802,63,1,,,,0,stay,Male,22
16,8,,5,0.625,0,1.6,0.6,"1,1,1,1,1","0,0,1,1,1","1,1,0,0,0",9,5.2672,15,4.7644,26,2,,,,0.35294117647058826,compromise,Male,22
16,9,,5,0.875,0,2,0.8,"1,1,1,1,1","0,1,1,1,1","1,0,0,0,0",12,6.9761,70,6.4652,80,3,,,,0.8529411764705882,compromise,Male,22
16,10,,45,0.875,0,1.5,0.866666667,"9,9,9,9,9","8,8,7,8,8","1,1,2,1,1",70,3.9194,70,7.0355,86,1,,,,0,stay,Male,22
16,11,,5,0.125,0,1.9,0.2,"1,1,1,1,1","0,0,1,0,0","1,1,0,1,1",10,3.735,15,3.077,25,2,,,,0.3333333333333333,compromise,Male,22
16,12,,5,0.5,1,1.7,0.6,"1,1,1,1,1","0,1,1,0,1","1,0,0,1,0",1,6.2911,12,5.3254,3,2,,,,5.5,copy,Male,22
16,13,,45,0.75,0,1.9,0.755555556,"9,9,9,9,9","8,6,5,8,7","1,3,4,1,2",80,5.4616,75,4.174,63,2,,,,0.29411764705882354,compromise,Male,22
16,14,,45,0.5,0,1.7,0.511111111,"9,9,9,9,9","4,4,5,4,6","5,5,4,5,3",20,5.9822,38,4.9258,38,3,,,,1,copy,Male,22
16,15,,45,0.5,0,1.5,0.511111111,"9,9,9,9,9","4,5,5,5,4","5,4,4,4,5",46,4.0837,45,4.3217,63,2,,,,-0.058823529,stay,Male,22
16,16,,45,0.25,0,2,0.244444444,"9,9,9,9,9","3,3,2,2,1","6,6,7,7,8",32,5.1632,26,5.4385,15,3,,,,0.35294117647058826,compromise,Male,22
16,17,,45,0.875,1,1.6,0.866666667,"9,9,9,9,9","7,8,8,7,9","2,1,1,2,0",80,4.2429,80,2.663,80,3,,,,NA,NA,Male,22
16,18,,5,0.25,0,1.6,0.2,"1,1,1,1,1","0,0,1,0,0","1,1,0,1,1",10,1.8685,15,3.5931,25,3,,,,0.3333333333333333,compromise,Male,22
16,19,,5,0.75,0,1.9,0.8,"1,1,1,1,1","1,0,1,1,1","0,1,0,0,0",20,2.7493,18,3.5308,36,2,,,,-0.125,stay,Male,22
16,20,,45,0.25,0,1.8,0.244444444,"9,9,9,9,9","2,0,2,4,3","7,9,7,5,6",27,3.6587,24,4.8522,10,2,,,,0.17647058823529413,compromise,Male,22
16,21,,5,0.375,0,1.5,0.4,"1,1,1,1,1","0,1,0,0,1","1,0,1,1,0",10,3.7039,8,3.3939,28,1,,,,-0.111111111,stay,Male,22
16,22,,5,0.375,1,1.6,0.4,"1,1,1,1,1","0,1,0,0,1","1,0,1,1,0",8,2.8508,15,5.6499,6,1,,,,-3.5,stay,Male,22
16,23,,45,0.125,1,1.7,0.133333333,"9,9,9,9,9","2,0,3,1,0","7,9,6,8,9",35,3.5723,30,8.3592,88,1,,,,-0.094339623,stay,Male,22
16,24,,45,0.625,0,1.6,0.622222222,"9,9,9,9,9","3,6,9,3,7","6,3,0,6,2",68,2.0686,60,4.7877,50,2,,,,0.4444444444444444,compromise,Male,22
16,25,,45,0.125,0,1.7,0.133333333,"9,9,9,9,9","0,0,1,3,2","9,9,8,6,7",20,3.6441,10,5.3614,3,3,,,,0.5882352941176471,compromise,Male,22
16,26,,5,0.5,0,1.9,0.6,"1,1,1,1,1","1,1,1,0,0","0,0,0,1,1",18,4.6241,18,3.7534,36,2,,,,0,stay,Male,22
16,27,,5,0.625,1,1.8,0.6,"1,1,1,1,1","0,0,1,1,1","1,1,0,0,0",27,7.9751,30,5.7438,29,2,,,,1.5,copy,Male,22
16,28,,45,0.75,0,1.8,0.755555556,"9,9,9,9,9","7,6,8,7,6","2,3,1,2,3",68,4.4448,63,4.2024,83,1,,,,-0.333333333,stay,Male,22
16,29,,45,0.25,1,1.7,0.244444444,"9,9,9,9,9","1,1,6,3,0","8,8,3,6,9",47,1.8992,46,4.7789,46,1,,,,1,copy,Male,22
16,30,,5,0.875,0,1.5,0.8,"1,1,1,1,1","1,1,1,1,0","0,0,0,0,1",90,4.0799,80,5.0143,72,2,,,,0.5555555555555556,compromise,Male,22
16,31,,5,0.625,0,1.9,0.6,"1,1,1,1,1","0,1,0,1,1","1,0,1,0,0",60,1.6798,73,5.4476,76,3,,,,0.8125,compromise,Male,22
16,32,,45,0.75,1,1.6,0.755555556,"9,9,9,9,9","6,7,8,7,6","3,2,1,2,3",75,2.4959,75,6.7993,5,1,,,,0,stay,Male,22
16,33,,45,0,1,1.5,0,"9,9,9,9,9","0,0,0,0,0","9,9,9,9,9",0,2.3683,0,2.2919,0,3,,,,NA,NA,Male,22
16,34,,5,0.75,0,1.5,0.8,"1,1,1,1,1","1,1,1,1,0","0,0,0,0,1",90,1.5865,80,4.0113,72,3,,,,0.5555555555555556,compromise,Male,22
16,35,,5,0.375,0,1.6,0.4,"1,1,1,1,1","1,0,1,0,0","0,1,0,1,1",70,5.4816,60,6.5217,55,3,,,,0.6666666666666666,compromise,Male,22
16,36,,5,0.625,0,1.8,0.6,"1,1,1,1,1","0,1,1,0,1","1,0,0,1,0",65,5.107,70,5.2231,50,1,,,,-0.333333333,stay,Male,22
16,37,,5,0.75,0,1.6,0.8,"1,1,1,1,1","1,1,1,1,0","0,0,0,0,1",90,1.8335,90,2.3711,73,1,,,,0,stay,Male,22
16,38,,45,0.375,0,1.7,0.377777778,"9,9,9,9,9","5,4,4,3,1","4,5,5,6,8",37,2.2702,35,3.4612,53,1,,,,-0.125,stay,Male,22
16,39,,45,0.875,0,1.8,0.866666667,"9,9,9,9,9","9,8,7,7,8","0,1,2,2,1",76,2.423,85,4.3432,94,3,,,,0.5,compromise,Male,22
