sID,trialNumber,response_times,correct_order,click_order,response_correct
3,1,"[1.0481322000005093, 1.8318424000008235]","[2, 5]","[2, 5]",True
3,2,"[1.4821388999998817, 2.8314191999998]","[8, 3]","[8, 3]",True
3,3,"[0.9648011999997834, 1.7315444999994725]","[1, 2]","[1, 2]",True
3,4,"[0.8654517000004489, 1.4146073000001707, 2.114920200000597]","[8, 2, 6]","[8, 2, 6]",True
3,5,"[0.8819566000001942, 1.6648313000005146, 2.3979018999998516]","[5, 3, 1]","[5, 3, 1]",True
3,6,"[0.9150528999998642, 1.4984598000000915, 2.2313803000006374]","[5, 3, 2]","[5, 3, 2]",True
3,7,"[0.7648340999994616, 1.248530099999698, 2.081692899999325, 2.8145770999999513]","[1, 1, 6, 0]","[1, 1, 6, 0]",True
3,8,"[0.9814624999999069, 1.6652157999997144, 2.298465799999576, 2.665108700000019]","[2, 6, 4, 4]","[2, 6, 4, 4]",True
3,9,"[1.0650661999998192, 1.8485983999999007, 2.615051599999788, 3.6155255999992733]","[3, 5, 2, 4]","[3, 5, 2, 4]",True
3,10,"[0.7646394000003056, 1.4834173999997802, 2.231559500000003, 2.981479400000353, 3.63128609999967]","[1, 2, 5, 3, 2]","[1, 2, 5, 3, 2]",True
3,11,"[1.0483905999999479, 1.7479109999994762, 2.448359299999538, 3.215118299999631, 3.815034399999604]","[2, 1, 3, 4, 6]","[2, 1, 3, 4, 6]",True
3,12,"[0.9151025999999547, 1.5483679000008124, 2.165254100000311, 3.0652912000005017, 3.6982692999999927]","[7, 4, 6, 7, 2]","[7, 4, 6, 7, 2]",True
3,13,"[0.7151608000003762, 1.7147092000004704, 2.464312500000233, 3.198223600000347, 3.964284800000314, 4.9481776000002355]","[8, 3, 0, 3, 0, 7]","[8, 3, 0, 3, 0, 7]",True
3,14,"[0.7984013999994204, 1.4978494999995746, 2.231735899999876, 3.0317535999993197, 3.8981039000000237, 4.997887499999706]","[8, 0, 6, 4, 5, 4]","[8, 0, 6, 4, 5, 4]",True
3,15,"[0.7486584000007497, 1.38104629999998, 2.1819485000005443, 2.815190000000257, 3.6142926000002262, 4.231528199999957]","[6, 0, 7, 5, 0, 3]","[6, 0, 7, 5, 0, 3]",True
3,16,"[0.8311299999995754, 1.3650032999994437, 2.081560900000113, 2.799764100000175, 3.54848149999998, 4.231613599999946, 5.197696899999755]","[0, 1, 2, 3, 1, 6, 4]","[0, 1, 2, 3, 6, 4, 0]",False
3,17,"[0.6980199999998149, 1.330931800000144, 1.6808984999997847, 2.3483031000005212, 3.0496736000004603, 4.181447500000104, 4.848022700000001]","[2, 0, 0, 8, 4, 8, 3]","[2, 0, 0, 8, 4, 8, 3]",True
3,18,"[0.9820595999999568, 1.5150090999995882, 2.1814610999999786, 3.0145093999999517, 3.981101299999864, 4.598613799999839, 5.1983150999994905]","[6, 6, 3, 1, 0, 7, 5]","[6, 6, 3, 1, 0, 7, 7]",False
3,19,"[0.998804700000619, 2.0984971000007135, 2.8317370000004303, 3.481658900000184, 4.681545200000073, 5.265386699999908, 5.767270600000302, 6.381890399999975]","[5, 6, 0, 3, 2, 5, 2, 7]","[5, 6, 0, 3, 2, 7, 5, 5]",False
3,20,"[1.731720700000551, 2.3645467000005738, 3.133787100000518, 4.34814280000046, 6.464367999999922, 7.064871900000071, 7.564449600000444, 8.031555100000332]","[1, 7, 6, 1, 2, 7, 7, 6]","[7, 1, 6, 2, 1, 7, 2, 7]",False
3,21,"[1.0816462000002502, 1.631796800000302, 2.531551000000036, 3.4487827000002653, 4.281848599999648, 6.364645599999676, 8.181294699999853, 9.933506399999715]","[5, 3, 7, 2, 5, 1, 8, 3]","[5, 7, 2, 6, 5, 3, 1, 6]",False
6,1,"[0.9481476000000839, 1.6988337000002502]","[0, 8]","[0, 8]",True
6,2,"[1.1152617000007012, 1.7985585999995237]","[7, 3]","[7, 3]",True
6,3,"[0.8980890000002546, 1.6147608000010223]","[2, 0]","[2, 0]",True
6,4,"[0.8814552000003459, 1.5484190999995917, 2.0984312999989925]","[3, 7, 4]","[3, 7, 4]",True
6,5,"[1.0819651000001613, 1.7315815999991173, 2.398317200000747]","[8, 0, 5]","[8, 0, 5]",True
6,6,"[0.7151706999993621, 1.1988781999989442, 1.8647375000000466]","[2, 7, 1]","[2, 7, 1]",True
6,7,"[0.5147202999996807, 1.098385999999664, 2.1485047999995004, 2.8316204999991896]","[0, 4, 3, 1]","[0, 4, 3, 1]",True
6,8,"[1.1320071000009193, 2.1484868000006827, 2.999083500000779, 3.282412300000942]","[5, 7, 8, 8]","[5, 7, 8, 8]",True
6,9,"[0.5989055999998527, 1.498729099999764, 2.1312614999988, 2.9818660999990243]","[8, 6, 0, 4]","[8, 6, 0, 4]",True
6,10,"[0.8984590000000026, 1.4319336999997176, 2.0487660999988293, 3.064735699999801, 3.715147499999148]","[2, 3, 7, 2, 4]","[2, 3, 7, 2, 4]",True
6,11,"[1.5318378000010853, 2.181398500000796, 2.7319239000007656, 3.331430800000817, 3.7980953000005684]","[5, 1, 0, 1, 1]","[5, 1, 0, 1, 1]",True
6,12,"[0.8487874999991618, 1.331671699999788, 1.6649796000001515, 2.2485182999989775, 2.58184540000002]","[3, 1, 1, 7, 7]","[3, 1, 1, 7, 7]",True
6,13,"[0.6647566999999981, 1.5814644000001863, 2.332279099999141, 3.248057799999515, 4.0486196000001655, 4.881168300000354]","[1, 4, 1, 5, 8, 0]","[1, 4, 1, 5, 8, 0]",True
6,14,"[1.166411700000026, 2.198030999999901, 4.298302299999705, 5.415084099999149, 6.081280200000037, 8.314555199998722]","[4, 2, 1, 5, 3, 2]","[4, 1, 5, 3, 2, 2]",False
6,15,"[0.9981241999994381, 1.5987791999996261, 2.099827699999878, 2.6649391999999352, 3.248410899999726, 3.7988621999993484]","[2, 7, 5, 2, 3, 8]","[2, 7, 5, 2, 3, 8]",True
6,16,"[0.9338210999994772, 2.9646131999998033, 4.114931100000831, 5.947725199999695, 6.431841800000257, 7.147890300000654, 8.14853310000035]","[0, 0, 2, 3, 0, 7, 0]","[0, 2, 3, 0, 7, 0, 7]",False
6,17,"[1.2153660000003583, 1.7813433999999688, 2.515169700000115, 2.998294099999839, 3.381866399999126, 4.214856900000086, 4.865227899999809]","[7, 2, 4, 6, 6, 2, 2]","[7, 2, 4, 6, 6, 2, 7]",False
6,18,"[1.298172800001339, 1.931489700000384, 3.432057400001213, 4.147733400001016, 4.664994100001422, 5.298226400000203, 5.8983056000015495]","[1, 4, 8, 0, 5, 5, 6]","[1, 4, 8, 0, 5, 6, 5]",False
8,1,"[1.6653795000001992, 2.3148005999992165]","[7, 1]","[7, 1]",True
8,2,"[2.3486895999994886, 3.248143999999229]","[7, 1]","[7, 1]",True
8,3,"[1.3652098999991722, 2.1313968999984354]","[4, 0]","[4, 0]",True
8,4,"[0.8319874000007985, 1.5483461000003444, 2.116169999999329]","[6, 2, 0]","[6, 2, 0]",True
8,5,"[1.1147474000008515, 1.8838988000006793, 2.6150290000005043]","[3, 8, 4]","[3, 8, 4]",True
8,6,"[1.0149725999999646, 1.764409199999136, 2.4647650999995676]","[8, 1, 5]","[8, 1, 5]",True
8,7,"[0.7153763999995135, 1.3821692000001349, 2.031687699998656, 2.5982586999998603]","[6, 6, 3, 5]","[6, 6, 3, 5]",True
8,8,"[0.9151575000014418, 1.5652900000004593, 2.131169199999931, 2.7983281000015268]","[6, 8, 0, 2]","[6, 8, 0, 2]",True
8,9,"[1.765087300000232, 2.4477837000013096, 3.364716400001271, 4.097958500000459]","[8, 1, 4, 1]","[8, 1, 4, 1]",True
8,10,"[1.3986046999998507, 2.2149676000008185, 2.9315495000009832, 3.598223400000279, 4.348210399999516]","[5, 4, 1, 5, 4]","[5, 4, 1, 5, 4]",True
8,11,"[0.9481525999999576, 1.4480575999987195, 2.215127299999949, 2.7819545999991533, 3.5311986999986402]","[2, 2, 7, 6, 1]","[2, 2, 7, 6, 1]",True
8,12,"[0.9984972999991442, 1.7147295999984635, 2.4150732999987667, 3.598757599998862, 4.414501799999925]","[7, 2, 3, 8, 1]","[7, 2, 3, 8, 1]",True
8,13,"[2.398500100000092, 3.0481364999996003, 3.864480599999297, 4.347949299999527, 5.264344699999128, 6.981185099999493]","[3, 4, 1, 8, 3, 2]","[8, 4, 1, 3, 2, 3]",False
8,14,"[0.9985861000004661, 1.581807700000354, 1.9484171000003698, 2.6986612000000605, 3.3330798000006325, 3.597875000001295]","[3, 6, 6, 8, 0, 0]","[3, 6, 6, 8, 0, 0]",True
8,15,"[1.2645233000002918, 1.8145015999998577, 2.2145364999996673, 3.0646335000001272, 3.648106700000426, 4.381163500000184]","[2, 0, 5, 5, 3, 1]","[2, 0, 0, 5, 3, 1]",False
8,16,"[0.8486749999992753, 1.4986960000005638, 2.1981415999998717, 4.048065200000565, 5.714840599999661, 6.398043499999403, 6.948560299999372]","[6, 5, 3, 4, 4, 0, 6]","[6, 5, 3, 3, 4, 0, 6]",False
8,17,"[0.9318874000000505, 1.6653263000007428, 1.915080200000375, 2.564638300000297, 3.2667118000008486, 4.09800610000093, 4.297944399999324]","[8, 1, 6, 6, 7, 2, 2]","[8, 6, 6, 1, 7, 2, 2]",False
8,18,"[0.764444899999944, 1.3149785999994492, 2.3147749999989173, 2.9814473999995244, 4.147746599999664, 4.614599199998338, 5.198400599998422]","[0, 4, 1, 4, 1, 1, 6]","[0, 4, 1, 4, 1, 1, 6]",True
8,19,"[2.182054799999605, 2.848271599999862, 3.548841800000446, 4.264479800000117, 4.781113000000914, 5.6150221999996575, 6.281705200000943, 7.315063899999586]","[6, 4, 8, 0, 4, 4, 0, 6]","[6, 4, 8, 0, 0, 6, 4, 4]",False
8,20,"[1.1174794000016846, 1.5154730000012933, 2.1316792000015994, 2.5317924000009953, 3.015432000000146, 4.064918100000796, 6.381402700000763, 7.464815799999997]","[8, 8, 6, 6, 8, 2, 6, 2]","[8, 8, 6, 6, 8, 2, 2, 6]",False
8,21,"[1.3484711999990395, 2.064991100000043, 2.381594299999051, 5.06518270000015, 6.248639599998569, 6.9312286999993376, 7.214648099999977, 7.831754799999544]","[5, 1, 1, 7, 6, 5, 2, 5]","[5, 1, 1, 7, 6, 2, 2, 5]",False
9,1,"[1.1149547000004532, 2.2646593999998004]","[4, 1]","[4, 1]",True
9,2,"[1.431559899999229, 2.248578899999302]","[2, 6]","[2, 6]",True
9,3,"[1.5318648999991638, 2.215598499999942]","[2, 7]","[2, 7]",True
9,4,"[0.8985314000001381, 1.6649160000006304, 2.2646275000006426]","[0, 6, 3]","[0, 6, 3]",True
9,5,"[1.2148640999994313, 2.098792899999353, 3.067270599999574]","[2, 6, 5]","[2, 6, 5]",True
9,6,"[0.9812695000000531, 1.7984944999998334, 2.5482268000005206]","[2, 8, 5]","[2, 8, 5]",True
9,7,"[0.9986228999996456, 1.7988844999999856, 2.532421699999759, 3.3314080999998623]","[6, 5, 6, 1]","[6, 5, 6, 1]",True
9,8,"[0.9819464000001972, 1.548714700000346, 2.0647337999998854, 2.7479756000002453]","[6, 8, 4, 1]","[6, 8, 4, 1]",True
9,9,"[0.9649807000005239, 1.681984800000464, 2.264959400000407, 3.0653282000002946]","[4, 2, 2, 7]","[4, 2, 2, 7]",True
9,10,"[1.1649311999999554, 1.7148819000003641, 2.765240200000335, 3.298530600000049, 3.8645661000000473]","[0, 0, 4, 4, 0]","[0, 0, 4, 4, 0]",True
9,11,"[1.181912299999567, 1.7819650999999794, 2.6151578999997582, 3.331995900000038, 4.132274399999915]","[7, 7, 3, 4, 7]","[7, 7, 3, 4, 7]",True
9,12,"[1.1154333000004044, 1.6985512000001108, 2.3652173999998922, 3.4813827000007223, 4.115043300000252]","[8, 8, 1, 0, 4]","[8, 8, 1, 0, 4]",True
9,13,"[1.0984817999997176, 3.11488830000053, 4.031717099999696, 5.015160400000241, 5.932394399999794, 6.781429599999683]","[2, 3, 6, 4, 8, 0]","[2, 3, 6, 4, 8, 0]",True
9,14,"[1.0484786999995777, 1.8323707999998078, 2.4817117000002327, 3.2986028999994232, 3.964668200000233, 4.59853750000002]","[8, 2, 3, 7, 0, 5]","[2, 8, 3, 7, 0, 5]",False
9,15,"[0.9155884000001606, 1.7146017000004576, 2.4148182999997516, 3.2485513999999966, 3.9317590000000564, 4.59838740000032]","[7, 0, 2, 4, 3, 3]","[7, 0, 2, 4, 3, 3]",True
9,16,"[0.7321088000007876, 1.5148182000002635, 2.381779400000596, 3.2484909000004336, 4.031666700000642, 4.815123700000186, 5.565590800000791]","[5, 2, 3, 1, 6, 4, 8]","[5, 2, 3, 6, 1, 4, 8]",False
9,17,"[1.2151750000002721, 1.9486598000003141, 2.814308100000744, 3.531520100000307, 4.364694900000359, 5.215413600000829, 6.031700100000307]","[6, 6, 0, 6, 2, 7, 6]","[6, 6, 0, 6, 2, 7, 6]",True
9,18,"[2.131990200000473, 2.9820489000003363, 3.7481442999996943, 4.565397200000007, 5.63143940000009, 6.365399299999808, 7.265094700000191]","[5, 6, 2, 4, 1, 5, 5]","[5, 6, 2, 4, 1, 6, 5]",False
9,19,"[1.2986301000000822, 1.9489559000003283, 2.7985000999997283, 3.59831209999993, 4.381644299999607, 5.164949299999535, 5.948264200000267, 6.648489100000006]","[4, 8, 5, 1, 4, 1, 1, 3]","[4, 8, 5, 1, 4, 1, 1, 3]",True
9,20,"[1.2154626000001372, 1.9664769000000888, 2.9817455000002155, 3.7147666000000754, 4.531398000000081, 5.531737000000248, 6.514865199999804, 7.4812675000002855]","[6, 2, 3, 3, 2, 7, 2, 0]","[6, 2, 3, 3, 2, 7, 2, 0]",True
9,21,"[0.948704500000531, 1.8647047000004022, 2.5315285000006043, 3.1987521999999444, 3.8649100000002363, 4.781826200000069, 5.482200600000397, 6.332001800000398]","[8, 8, 6, 1, 2, 4, 7, 6]","[8, 1, 1, 6, 2, 4, 7, 6]",False
9,22,"[1.3816936000002897, 2.1983524000006582, 2.8986453000006804, 3.648465400000532, 4.216904500000055, 4.865112299999964, 5.714849900000445, 6.931320000000596, 7.648258700000042]","[4, 0, 3, 5, 0, 3, 4, 7, 3]","[4, 3, 5, 3, 0, 7, 3, 0, 3]",False
9,23,"[1.0649272999999084, 1.7815428999992946, 2.9485014000001684, 4.78199499999937, 5.682050899999922, 7.014461499999925, 8.730804599999828, 10.131456199999775, 11.280928199999835]","[1, 1, 0, 6, 8, 8, 1, 2, 1]","[1, 0, 6, 8, 8, 2, 0, 6, 1]",False
9,24,"[1.3495720000000802, 2.299735800000235, 3.115595000000212, 3.8484612000002016, 4.731763700000556, 5.814729300000181, 6.665466700000252, 7.498014800000419, 8.49858949999998]","[7, 0, 4, 6, 1, 8, 6, 1, 8]","[7, 0, 8, 4, 6, 1, 8, 1, 6]",False
13,1,"[1.0983581000000413, 1.9154192999994848]","[5, 6]","[5, 6]",True
13,2,"[0.7815554999997403, 1.2984025000005204]","[1, 3]","[1, 3]",True
13,3,"[0.7151494000008825, 1.2817212000009022]","[3, 3]","[3, 3]",True
13,4,"[0.898206100000607, 1.648263200000656, 2.2145553000009386]","[3, 0, 1]","[3, 0, 1]",True
13,5,"[0.816523600000437, 1.3148983999999473, 1.8151058000003104]","[4, 1, 6]","[4, 1, 6]",True
13,6,"[0.898363899999822, 1.615373399999953, 2.3151550000002317]","[5, 6, 4]","[5, 6, 4]",True
13,7,"[0.7819839000003412, 1.832119500000772, 2.5487922000011167, 3.148582300000271]","[5, 6, 7, 7]","[5, 6, 7, 7]",True
13,8,"[0.8652453000013338, 1.414939800000866, 2.2985755000008794, 2.931905600000391]","[5, 2, 6, 8]","[5, 2, 6, 8]",True
13,9,"[1.0985347999994701, 1.9485922000003484, 2.615180999999211, 3.2818578999995225]","[7, 5, 4, 5]","[7, 5, 4, 5]",True
13,10,"[0.848101300000053, 1.598516699999891, 2.198831900001096, 2.831314300001395, 3.4146627000009175]","[2, 7, 8, 2, 2]","[2, 7, 8, 2, 2]",True
13,11,"[1.331989500000418, 1.9315831999992952, 2.3497167000004993, 2.9979739999998856, 3.481232000000091]","[8, 7, 1, 2, 3]","[8, 7, 1, 2, 3]",True
13,12,"[1.048435700000482, 1.7975655999998708, 2.430877700000565, 4.080819000000702, 4.597920199999862]","[7, 1, 0, 0, 1]","[7, 1, 0, 0, 1]",True
13,13,"[0.6981109999996988, 1.465889099999913, 2.21501459999854, 3.0481900999984646, 3.7316230999986146, 4.231946399999288]","[2, 4, 5, 4, 5, 8]","[2, 4, 5, 4, 5, 8]",True
13,14,"[1.0313427000000956, 1.8816366999999445, 2.8487476000009337, 3.3153504000001703, 3.8832156999997096, 4.465218400000595]","[0, 4, 0, 8, 5, 6]","[0, 4, 8, 5, 8, 6]",False
13,15,"[0.8489346000005753, 1.515022300000055, 1.998385299999427, 2.7987802999996347, 3.7812640000011015, 4.364857099999426]","[7, 2, 2, 4, 0, 4]","[7, 2, 2, 4, 0, 4]",True
13,16,"[1.6478417000016634, 2.4150506000005407, 3.8316837000002124, 4.881782500000554, 6.598080000001573, 7.7477523000015935, 8.39794780000011]","[0, 0, 5, 6, 3, 4, 3]","[0, 5, 6, 6, 4, 3, 3]",False
13,17,"[0.9145738000006531, 1.665335400000913, 2.1649737000007008, 2.547732000000906, 3.2650907000006555, 3.8479604000003746, 4.415212600000814]","[2, 6, 4, 1, 5, 3, 6]","[2, 6, 4, 1, 5, 3, 1]",False
13,18,"[1.2644327999987581, 1.8813864999992802, 2.281596400000126, 3.281724899999972, 5.964140500000212, 7.964635199999975, 8.59753819999969]","[0, 0, 6, 8, 0, 1, 4]","[0, 6, 6, 8, 1, 6, 0]",False
14,1,"[1.3301480999998603, 2.1144587999997384]","[0, 5]","[0, 5]",True
14,2,"[2.1141487000004417, 2.9310857000000397]","[4, 5]","[4, 5]",True
14,3,"[2.1812462000007145, 2.8807830000005197]","[7, 1]","[7, 1]",True
14,4,"[0.9634006999995108, 1.563671599999907, 2.197235499999806]","[0, 1, 2]","[0, 1, 2]",True
14,5,"[0.7982088999997359, 1.3146245999996609, 1.7645745999998326]","[8, 6, 6]","[8, 6, 6]",True
14,6,"[1.0137070000000676, 1.696945499999856, 2.4311738999995214]","[2, 1, 4]","[2, 1, 4]",True
14,7,"[0.7474856999997428, 1.3635832999998456, 2.0815239999992627, 2.514800599999944]","[6, 1, 7, 7]","[6, 1, 7, 7]",True
14,8,"[0.8804140000002008, 1.7479519000007713, 2.2980452000001605, 3.0479024000005666]","[2, 8, 8, 3]","[2, 8, 8, 3]",True
14,9,"[0.8807398999997531, 1.6644050999993851, 2.3147198999995453, 2.7978469999998197]","[5, 7, 8, 6]","[5, 7, 8, 6]",True
14,10,"[1.397883599999659, 2.3315412000001743, 3.2642738999993526, 4.1646670999998605, 4.865865599999779]","[5, 8, 3, 5, 3]","[5, 8, 3, 5, 3]",True
14,11,"[1.0470753999998124, 1.6143208000003142, 2.430682700000034, 4.164019400000143, 4.914440399999876]","[0, 6, 6, 1, 3]","[0, 6, 1, 1, 3]",False
14,12,"[0.6805882999997266, 1.3483461999994688, 2.0981008999997357, 2.648529000000053, 3.315273100000013]","[0, 7, 5, 5, 8]","[0, 7, 5, 5, 8]",True
14,13,"[0.8972958000003928, 1.7641421999996965, 2.680927899999915, 3.680858100000478, 4.64769299999989, 5.4643965000004755]","[2, 5, 5, 4, 2, 4]","[2, 5, 5, 4, 2, 4]",True
14,14,"[0.9814553999995042, 1.6139028999996299, 2.564912999999251, 3.0983399999995527, 3.6640025999995487, 4.247882499999832]","[8, 2, 4, 8, 0, 5]","[8, 2, 4, 8, 0, 5]",True
14,15,"[0.9483273999994708, 1.7645777999996426, 4.5809392999999545, 5.532070499999463, 6.282417899999928, 8.481842700000016]","[5, 8, 0, 8, 5, 3]","[5, 8, 0, 8, 3, 5]",False
14,16,"[0.9802307999998447, 1.7644302999997308, 2.7971761999997398, 4.281872399999884, 4.865368099999614, 5.548239799999465, 7.715596600000026]","[1, 7, 0, 0, 4, 8, 7]","[1, 7, 0, 4, 8, 7, 7]",False
14,17,"[0.798128700000234, 1.363860299999942, 1.9470448000001852, 2.8143878999999288, 3.714411800000562, 4.264047399999981, 4.7984369000005245]","[5, 1, 0, 4, 4, 3, 0]","[5, 1, 0, 4, 3, 0, 0]",False
14,18,"[2.68074869999964, 3.9145304000003307, 5.597428099999888, 6.615107900000112, 7.431358300000284, 8.047875399999612, 8.865307500000199]","[5, 4, 3, 1, 7, 0, 8]","[3, 5, 0, 7, 3, 1, 6]",False
16,1,"[1.3147485999998025, 2.115541099999973]","[1, 2]","[1, 2]",True
16,2,"[2.3481909000001906, 3.0314439000003404]","[3, 2]","[3, 2]",True
16,3,"[1.2819591999996192, 2.164659699999902]","[5, 1]","[5, 1]",True
16,4,"[1.031579800000145, 1.6981607000006989, 2.4813066000006074]","[0, 0, 1]","[0, 0, 1]",True
16,5,"[1.1002813999994032, 2.098547900000085, 2.7146504000002096]","[4, 7, 0]","[4, 7, 0]",True
16,6,"[1.4479686000004222, 2.3149175000007745, 2.748284600000261]","[0, 1, 1]","[0, 1, 1]",True
16,7,"[0.7983230999998341, 1.6820602999996481, 2.4321546000001035, 3.2485796999999366]","[3, 5, 7, 8]","[3, 5, 7, 8]",True
16,8,"[2.6147854999999254, 3.3645433000001503, 4.131626500000493, 4.7980788000004395]","[2, 0, 5, 2]","[2, 0, 5, 2]",True
16,9,"[1.0643653999995877, 1.814969099999871, 2.6480814999995346, 3.3667601999995895]","[2, 6, 5, 2]","[2, 6, 5, 2]",True
16,10,"[0.8651932000002489, 1.6316210000004503, 2.398305700000492, 3.0813825000004726, 3.7650750000002517]","[4, 5, 1, 2, 2]","[4, 5, 1, 2, 2]",True
16,11,"[2.4984033000000636, 5.049478699999781, 5.765087499999936, 6.6812753000003795, 7.38186080000014]","[5, 2, 8, 2, 7]","[5, 2, 8, 2, 7]",True
16,12,"[0.9813698999996632, 1.8650266999993619, 2.264850099999421, 2.865296699999817, 3.66557019999982]","[1, 3, 3, 6, 8]","[1, 3, 3, 6, 8]",True
16,13,"[2.265086600000359, 6.581290699999954, 7.414951300000212, 7.581702200000109, 9.564882399999988, 10.398347500000455]","[7, 2, 7, 7, 0, 5]","[2, 0, 7, 7, 3, 5]",False
16,14,"[6.381976300000133, 7.048279999999977, 7.715533900000082, 8.348150400000122, 10.931848700000046, 11.58129689999987]","[5, 8, 7, 5, 3, 7]","[7, 5, 8, 3, 7, 1]",False
16,15,"[2.1320002000002205, 2.882064499999615, 4.0153362999999445, 5.28149250000024, 5.864640799999506, 6.281581799999913]","[8, 2, 8, 7, 3, 5]","[8, 7, 8, 3, 2, 5]",False
17,1,"[2.0166244000001825, 2.964748100000179]","[5, 2]","[5, 2]",True
17,2,"[2.2485100999992937, 3.4314078999996127]","[1, 3]","[1, 3]",True
17,3,"[1.1323056000001088, 1.9314515000005485]","[8, 0]","[8, 0]",True
17,4,"[0.8318263999999544, 1.6814520999996603, 2.5155304999998407]","[7, 2, 7]","[7, 2, 7]",True
17,5,"[1.3321592000002056, 1.79893550000088, 2.4649020000006203]","[8, 8, 2]","[8, 8, 2]",True
17,6,"[0.7146841000003405, 1.4670813000002454, 2.964788999999655]","[0, 1, 2]","[0, 1, 2]",True
17,7,"[0.8316044000002876, 1.7149257999999463, 2.5652258999998594, 3.281636499999877]","[3, 1, 8, 5]","[3, 1, 8, 5]",True
17,8,"[0.8150364999992235, 1.6146355999999287, 2.53143799999998, 3.2653991999995924]","[2, 1, 0, 7]","[2, 1, 0, 7]",True
17,9,"[1.364992699999675, 1.997875799999747, 2.2481183999998393, 2.915288799999871]","[5, 0, 0, 5]","[5, 0, 0, 5]",True
17,10,"[1.182161300000189, 1.9817260999998325, 2.8155840999997963, 3.5812065000000075, 4.16484440000022]","[7, 5, 8, 0, 1]","[7, 5, 8, 0, 1]",True
17,11,"[1.697798999999577, 2.3983703000003516, 3.1317834000001312, 4.031617100000403, 4.864550999999665]","[0, 5, 6, 7, 3]","[0, 5, 6, 7, 3]",True
17,12,"[0.7651979000002029, 1.331235900000138, 1.8652650000003632, 2.581747200000791, 3.1316415999999663]","[7, 3, 8, 6, 8]","[7, 3, 8, 6, 8]",True
17,13,"[0.9648579999993672, 1.6649684999993042, 2.331404499999735, 3.033547699999872, 3.6152244999993854, 4.748212099999364]","[3, 1, 2, 6, 1, 5]","[3, 1, 2, 6, 5, 1]",False
17,14,"[1.031113899999582, 1.547947999999451, 2.281975899999452, 3.0482419999998456, 3.665003500000239, 4.2480757000002995]","[0, 3, 7, 4, 7, 1]","[0, 3, 7, 4, 7, 1]",True
17,15,"[0.7314031000005343, 1.415370200000325, 2.080939700000272, 2.598125400000754, 2.9813387000003786, 3.631751100000656]","[4, 2, 0, 2, 2, 6]","[4, 2, 0, 2, 2, 6]",True
17,16,"[0.7830221000003803, 1.3152831999996124, 1.4817064999997456, 2.181498500000089, 2.8979362000000037, 3.5978038000002925, 4.347623200000271]","[6, 8, 8, 5, 2, 4, 0]","[6, 8, 8, 5, 2, 4, 0]",True
17,17,"[0.6655669000001581, 1.181724099999883, 2.4314236999998684, 2.731254999999692, 3.4318653999998787, 4.5477764999996, 5.7154272999996465]","[8, 8, 3, 2, 6, 1, 7]","[8, 3, 2, 2, 6, 1, 1]",False
17,18,"[1.7480752000001303, 2.4986972000006062, 3.3980483000004824, 4.2652539000000615, 5.24794970000039, 5.714809300000525, 6.415019500000199]","[3, 7, 3, 7, 3, 6, 8]","[3, 7, 3, 7, 3, 6, 8]",True
17,19,"[0.598539399999936, 1.331416199999694, 3.465110299999651, 4.0313052000001335, 4.531668800000261, 5.098256199999923, 5.798308700000234, 6.264710499999637]","[6, 4, 0, 8, 0, 3, 5, 5]","[6, 4, 8, 0, 8, 3, 5, 5]",False
17,20,"[0.9479929999997694, 1.414938699999766, 1.6313994000001912, 2.598129699999845, 3.298552700000073, 4.065011200000299, 4.5477868999996645, 4.731400800000301]","[1, 0, 0, 3, 5, 6, 1, 3]","[1, 0, 0, 3, 5, 6, 0, 0]",False
17,21,"[2.664856100000179, 4.748035000000527, 5.5317768000004435, 6.347755499999948, 6.631099900000663, 7.764515900000333, 8.464535400000386, 8.681153300000005]","[4, 2, 7, 5, 7, 0, 1, 3]","[4, 2, 7, 4, 4, 5, 3, 3]",False
23,1,"[2.0648872000001575, 3.0151810999996087]","[0, 4]","[0, 4]",True
23,2,"[1.3314554000007774, 1.9820323000003555]","[1, 7]","[1, 7]",True
23,3,"[1.298321999998734, 2.181723799998508]","[1, 5]","[1, 5]",True
23,4,"[0.6153005000014673, 1.2648060000010446, 1.8821261000011873]","[6, 1, 7]","[6, 1, 7]",True
23,5,"[0.9987932000003639, 1.9150100000006205, 2.5313394000004337]","[7, 1, 2]","[7, 1, 2]",True
23,6,"[0.8475488999993104, 1.6814813000000868, 2.4480170999995607]","[0, 7, 6]","[0, 7, 6]",True
23,7,"[1.3477937999996357, 1.815016000000469, 2.564983000000211, 3.0316017999994074]","[0, 8, 5, 4]","[0, 8, 5, 4]",True
23,8,"[2.4641773000003013, 2.981698300000062, 3.59805150000102, 4.214691299999686]","[8, 0, 6, 2]","[0, 8, 6, 2]",False
23,9,"[1.2984309000003122, 1.7655482000009215, 2.514807000001383, 3.2653927999999723]","[3, 8, 1, 7]","[3, 8, 1, 7]",True
23,10,"[1.1651261000006343, 1.880957600000329, 2.498243800000637, 3.3144045999997616, 3.8485027000006085]","[8, 0, 3, 2, 8]","[8, 0, 3, 2, 8]",True
23,11,"[0.9979946999992535, 1.6311938999988342, 2.2668192000001, 2.8480138999984774, 3.8479473999996117]","[2, 1, 3, 3, 0]","[2, 1, 3, 3, 0]",True
23,12,"[1.2818656999988889, 2.1985599999989063, 3.26539319999938, 3.8654628999993292, 4.465212400000382]","[4, 7, 5, 8, 7]","[4, 7, 5, 8, 7]",True
23,13,"[1.0484642999999778, 1.8815940000004048, 2.431152099999963, 3.048674399999072, 3.4812440000005154, 4.531428199999937]","[8, 5, 2, 6, 0, 5]","[8, 5, 2, 6, 0, 5]",True
23,14,"[1.0811919999996462, 1.6146470999992744, 2.214415700000245, 2.6484404999991966, 3.2651306000007025, 5.931253200000356]","[0, 3, 0, 3, 6, 4]","[0, 3, 0, 6, 4, 4]",False
23,15,"[1.0818490000001475, 1.7818095000002359, 2.2982202999992296, 2.864900200000193, 4.164667899998676, 4.650214600000254]","[5, 6, 5, 4, 3, 8]","[5, 6, 5, 4, 3, 8]",True
23,16,"[1.6317474000006769, 2.965501000000586, 3.315420599999925, 4.448824700000841, 7.182839299999614, 7.7812315999999555, 8.248582100000931]","[3, 7, 7, 8, 2, 4, 7]","[3, 7, 7, 8, 4, 2, 7]",False
23,17,"[1.3321175999990373, 2.214984000000186, 3.2151388000002044, 4.348602699999901, 5.331564399999479, 5.981585099998483, 6.41484539999874]","[7, 3, 5, 6, 4, 3, 7]","[7, 6, 4, 5, 3, 4, 3]",False
23,18,"[1.1982040999992023, 1.8817144000004191, 2.3820445999990625, 3.08163599999898, 3.714727700000367, 4.631696700000248, 5.247985699999845]","[1, 6, 4, 2, 3, 4, 0]","[1, 6, 4, 2, 3, 4, 0]",True
23,19,"[1.8646979999994073, 2.5814850000006118, 3.4651147999993555, 4.26484309999978, 4.798047899999801, 5.347757199999251, 5.831051400000433, 6.8647853000002215]","[3, 3, 4, 1, 4, 8, 5, 1]","[3, 5, 8, 6, 4, 1, 1, 1]",False
23,20,"[0.8318866999998136, 1.2484874000001582, 1.99822949999907, 2.8314904999988357, 3.5984692000001814, 5.2480672000001505, 5.847861499998544, 6.798521499998969]","[5, 6, 2, 5, 4, 2, 0, 4]","[5, 6, 2, 5, 4, 2, 0, 5]",False
23,21,"[2.5984480999995867, 3.1313364999987243, 3.731557499999326, 4.36495560000003, 5.381400099999155, 5.715295599999081, 6.5642661999991105, 8.048409099999844]","[8, 4, 6, 7, 4, 3, 8, 0]","[5, 3, 7, 4, 3, 8, 0, 8]",False
27,1,"[1.2486537000004319, 1.981542100000297]","[8, 0]","[8, 0]",True
27,2,"[0.7314140999997107, 1.2485324999997829]","[0, 5]","[0, 5]",True
27,3,"[1.13223730000027, 1.881370799999786]","[3, 0]","[3, 0]",True
27,4,"[1.2319428999999218, 2.315363800000341, 2.9811618000003364]","[8, 7, 0]","[8, 7, 0]",True
27,5,"[1.1148551999995107, 1.7150923999997758, 2.3817963000001328]","[2, 5, 3]","[2, 5, 3]",True
27,6,"[0.6146613999999317, 1.7321849999998449, 2.464647800000421]","[0, 7, 1]","[0, 7, 1]",True
27,7,"[0.8814387000002171, 1.7482401999996, 2.6652453999995487, 3.6316447999997763]","[2, 4, 8, 3]","[2, 4, 8, 3]",True
27,8,"[0.7313051000000996, 1.7986069999997198, 2.5995655999995506, 3.448595299999397]","[0, 7, 2, 8]","[0, 7, 2, 8]",True
27,9,"[1.2150329999994938, 1.8820998000001055, 2.9816369000000122, 3.548490000000129]","[2, 7, 1, 5]","[2, 7, 1, 5]",True
27,10,"[0.9153790000000299, 1.4313219999994544, 2.1321587000002182, 2.7321101999996245, 3.4485429999995176]","[5, 0, 8, 7, 4]","[5, 0, 8, 7, 4]",True
27,11,"[1.0152945999998337, 1.6481787000002441, 2.2507117000004655, 2.7485023999997793, 3.431706400000621]","[7, 2, 7, 7, 6]","[7, 2, 7, 7, 6]",True
27,12,"[0.9149292000001878, 1.9485882999997557, 2.4817536999998993, 3.114961499999481, 3.6645282999998017]","[1, 4, 6, 5, 0]","[1, 4, 6, 5, 0]",True
27,13,"[1.5316517000001113, 2.081703699999707, 3.049464099999568, 3.6148134999994, 4.131735199999639, 4.798084099999869]","[2, 2, 8, 2, 6, 0]","[2, 2, 8, 2, 6, 0]",True
27,14,"[1.5148067000000083, 1.897874899999806, 2.7317118999999366, 3.581739700000071, 4.648507099999733, 4.9651859999994485]","[1, 1, 5, 7, 6, 6]","[1, 1, 5, 7, 6, 6]",True
27,15,"[1.2319201000000248, 2.1823302000002514, 3.0152491999997437, 3.9148458999998184, 4.448323399999936, 5.198622300000352]","[4, 8, 6, 3, 3, 7]","[4, 8, 6, 3, 3, 7]",True
27,16,"[0.9650180999997247, 1.6318566999998438, 2.2483045999997557, 2.614958399999523, 3.2483978000000207, 3.8484051999994335, 5.281837599999562]","[2, 4, 2, 2, 6, 4, 8]","[2, 4, 2, 2, 6, 4, 8]",True
27,17,"[0.7153098999997383, 1.348465999999462, 2.0480179999995016, 3.0815477999994982, 4.215146200000163, 4.831373500000154, 5.4985344999995505]","[6, 4, 2, 5, 5, 3, 6]","[6, 4, 2, 5, 5, 3, 6]",True
27,18,"[1.6482483999998294, 2.165141799999219, 3.098116299999674, 3.9149236999992354, 4.864803799999208, 6.115063100000043, 8.164874699999928]","[3, 3, 2, 1, 1, 3, 2]","[3, 3, 2, 1, 1, 3, 2]",True
27,19,"[1.0477974000004906, 1.6478119000003062, 2.2481975000000602, 2.7330218000006425, 3.2311846000002333, 3.8812402000003203, 4.381193799999892, 4.947811500000171]","[4, 2, 7, 2, 6, 6, 4, 5]","[4, 2, 7, 2, 6, 4, 2, 5]",False
27,20,"[0.9321862999995574, 1.4817686999995203, 2.0482617999996364, 2.715113399999609, 3.448390599999584, 4.414948199999344, 5.048062299999401, 6.948533299999326]","[7, 4, 0, 2, 3, 5, 0, 4]","[7, 2, 0, 4, 3, 5, 0, 6]",False
27,21,"[1.7648870999992141, 2.881902699999955, 3.6318273999995654, 4.781376699999782, 5.464679499999875, 6.781177099999695, 7.431099199999153, 8.147972899999331]","[1, 8, 8, 3, 3, 1, 1, 3]","[1, 8, 8, 3, 3, 1, 1, 3]",True
27,22,"[1.148326999999881, 1.914790400000129, 2.831691200000023, 3.3482057000001078, 3.998580800000127, 4.59863469999982, 5.366925100000117, 6.015120699999898, 8.415088300000207]","[4, 0, 0, 5, 2, 7, 6, 8, 7]","[4, 0, 5, 2, 7, 6, 8, 7, 6]",False
27,23,"[1.1153715999998894, 2.1148367000005237, 3.0814483000003747, 3.9147822000004453, 4.798050899999907, 6.215025400000741, 10.2648992000004, 11.130995100000291, 11.748112500000389]","[6, 3, 0, 3, 0, 0, 7, 1, 6]","[6, 3, 0, 3, 0, 3, 7, 1, 6]",False
27,24,"[0.9486084999998639, 1.6317257999999129, 2.347785599999952, 3.248037999999724, 4.28131409999969, 4.99837639999987, 5.83138979999967, 6.798313999999664, 7.4979655999995884]","[5, 1, 0, 3, 0, 7, 1, 0, 1]","[5, 1, 0, 3, 0, 7, 1, 5, 1]",False
28,1,"[1.5649053999995886, 2.5817095000002155]","[3, 1]","[3, 1]",True
28,2,"[1.1835196000001815, 1.8983729000001404]","[4, 4]","[4, 4]",True
28,3,"[1.1489337000002706, 2.032109499999933]","[8, 6]","[8, 6]",True
28,4,"[0.8484005999998772, 1.8817892000006395, 3.7502494000000297]","[4, 8, 2]","[4, 8, 2]",True
28,5,"[1.3985482999996748, 2.3313249000002543, 3.448603599999842]","[4, 2, 5]","[4, 2, 5]",True
28,6,"[1.0811599000007845, 2.21483360000002, 3.7313644000005297]","[0, 1, 3]","[0, 1, 3]",True
28,7,"[0.9986857000003511, 2.2146506999997655, 3.1311446999998225, 4.015284500000234]","[8, 4, 0, 8]","[8, 4, 0, 8]",True
28,8,"[1.2820271999999022, 2.181573400000161, 2.848280500000328, 3.8993034000004627]","[6, 1, 1, 6]","[6, 1, 1, 6]",True
28,9,"[1.098436799999945, 1.965412299999116, 2.948543999999856, 3.9982247999996616]","[4, 5, 4, 3]","[4, 5, 4, 3]",True
28,10,"[1.0834555000001274, 2.031532299999526, 3.048579599999357, 4.031791499999599, 4.965007599999808]","[1, 2, 6, 7, 4]","[1, 2, 6, 7, 4]",True
28,11,"[0.8987890999997035, 1.7810938999991777, 2.71484799999962, 3.665343299999222, 4.615075999999135]","[7, 0, 1, 8, 3]","[7, 0, 1, 8, 3]",True
28,12,"[1.1983505000007426, 1.9484889000004841, 2.731373700000404, 3.881182699999954, 4.798602100000608]","[6, 5, 3, 2, 5]","[6, 5, 3, 2, 5]",True
28,13,"[0.7479533999994601, 1.631675699999505, 2.41477709999981, 3.29773380000006, 4.114865499999723, 4.7651576999996905]","[4, 6, 3, 2, 5, 8]","[4, 6, 3, 2, 5, 8]",True
28,14,"[0.9481734999999389, 1.8508196999991924, 2.599037099999805, 3.6317355999999563, 4.381968499999857, 5.264883999999256]","[0, 3, 8, 3, 6, 5]","[0, 3, 8, 3, 6, 5]",True
28,15,"[0.7979380999995556, 1.6318991999996797, 2.698671099999956, 3.414654000000155, 4.082257999999456, 4.83173910000005]","[0, 4, 6, 1, 8, 3]","[0, 4, 6, 1, 8, 3]",True
28,16,"[0.8332562000005055, 1.6811249000002135, 2.4830855000000156, 3.233122800000274, 3.898084700000254, 6.764679400000205, 7.39835949999997]","[8, 1, 4, 5, 3, 7, 4]","[8, 1, 4, 3, 5, 6, 7]",False
28,17,"[2.3650840999998763, 3.1815833000000566, 3.881397599999218, 4.681677900000068, 5.364720199999283, 6.1654100999994625, 6.9320096999999805]","[2, 4, 1, 6, 7, 3, 5]","[1, 4, 2, 6, 3, 7, 8]",False
28,18,"[0.7821316999998089, 1.5313879999994242, 2.1987898999996105, 3.081516499999452, 3.9817748999994365, 4.798155899999983, 5.5652570000002015]","[7, 0, 8, 4, 8, 1, 8]","[7, 0, 8, 4, 8, 1, 8]",True
28,19,"[0.8644355000005817, 1.6816576000001078, 2.614661000000524, 3.4979333999999653, 4.3811587999998665, 5.481541000000107, 6.464112300000124, 7.264219700000467]","[4, 8, 7, 6, 4, 6, 0, 1]","[4, 8, 7, 4, 6, 8, 0, 1]",False
28,20,"[0.8650376000005053, 1.764900199999829, 2.432456800000182, 3.1653433999999834, 3.682027500000004, 4.8482083999997485, 5.44864730000063, 6.114904699999897]","[6, 0, 7, 8, 8, 0, 3, 7]","[6, 0, 6, 7, 8, 3, 8, 7]",False
28,21,"[0.6150502000000415, 1.8153368000002956, 2.7147626999994827, 3.7984269999997196, 4.850289699999848, 5.781781300000148, 6.5816500000000815, 9.315120899999783]","[4, 5, 2, 0, 6, 7, 2, 3]","[4, 5, 2, 6, 7, 2, 3, 4]",False
29,1,"[1.1992472000001726, 2.0485242000013386]","[7, 3]","[7, 3]",True
29,2,"[1.6150825999993685, 2.2817943999998533]","[6, 7]","[6, 7]",True
29,3,"[0.6982239999997546, 1.2143806999993103]","[6, 0]","[6, 0]",True
29,4,"[0.7483470000006491, 1.4817237000006571, 2.264944900000046]","[7, 4, 7]","[7, 4, 7]",True
29,5,"[0.6979661999994278, 1.331460800000059, 1.9818460999995295]","[2, 1, 5]","[2, 1, 5]",True
29,6,"[0.5650549999991199, 1.0650857999989967, 1.715000099999088]","[5, 5, 8]","[5, 5, 8]",True
29,7,"[0.7483872000011615, 1.4809712000005675, 2.165005000000747, 2.897585300001083]","[6, 1, 6, 1]","[6, 1, 6, 1]",True
29,8,"[0.8819371000008687, 1.4147814000007202, 2.031057200001669, 2.6146423000009236]","[7, 5, 0, 1]","[7, 5, 0, 1]",True
29,9,"[0.647956200000408, 1.2983217000000877, 1.798033299999588, 2.231626000000688]","[0, 8, 2, 8]","[0, 8, 2, 8]",True
29,10,"[0.9149546000007831, 1.5152858000001288, 2.1650700000009238, 2.6314361999993707, 3.0828574000006483]","[1, 8, 3, 0, 6]","[1, 8, 3, 0, 6]",True
29,11,"[0.6815857000001415, 1.2983083999988594, 2.0813311000001704, 2.6810199999999895, 3.3485471999993024]","[6, 5, 4, 1, 7]","[6, 5, 4, 1, 7]",True
29,12,"[0.8148981999984244, 1.4650371999996423, 2.281454899999517, 2.948252499998489, 3.5650463000001764]","[3, 6, 1, 6, 8]","[3, 6, 1, 6, 8]",True
29,13,"[4.16490739999972, 4.931308499999432, 5.631207099999301, 6.0987839000008535, 6.765137599999434, 7.481162899999617]","[5, 3, 2, 8, 7, 5]","[5, 3, 2, 8, 7, 0]",False
29,14,"[0.7648435999999492, 1.4653501000011602, 2.1478612999999314, 2.764596500001062, 3.2981954000006226, 3.9479331000002276]","[4, 7, 1, 2, 1, 2]","[4, 7, 1, 2, 1, 2]",True
29,15,"[0.4649539999991248, 0.9648651000006794, 1.5314407999994728, 1.9814848999994865, 2.5319397000002937, 2.7485839999990276]","[2, 1, 0, 1, 6, 6]","[2, 1, 0, 1, 6, 6]",True
29,16,"[0.6988053000004584, 1.7651874000002863, 2.4480170999995607, 3.1148897999992187, 3.515105099999346, 4.182167099999788, 4.781359299999167]","[8, 5, 1, 2, 8, 7, 4]","[8, 5, 1, 2, 8, 7, 4]",True
29,17,"[0.8147030000000086, 1.7479027999997925, 2.448591500000475, 2.9144266999992396, 3.2814409000002343, 3.831328799999028, 4.797402500000317]","[8, 3, 6, 2, 6, 7, 1]","[8, 3, 6, 2, 6, 7, 1]",True
29,18,"[1.0815904999999475, 1.5981074000010267, 2.0985799999998562, 3.131574700000783, 3.514685300000565, 3.9482685000002675, 4.51478970000062]","[1, 0, 5, 5, 0, 6, 1]","[1, 0, 5, 5, 0, 6, 1]",True
29,19,"[0.965352700000949, 1.648704600000201, 2.2978536000009626, 2.8813189000011334, 3.4814237999999023, 3.9482200000002194, 4.481148900000335, 4.982027100000778]","[5, 6, 0, 1, 0, 1, 0, 7]","[5, 6, 0, 1, 0, 1, 0, 7]",True
29,20,"[1.4654892000016844, 2.1979009000006045, 2.915351700001338, 3.3151587000011205, 3.714914200001658, 4.198729900001126, 4.681065700000545, 5.4650227000001905]","[8, 1, 8, 8, 5, 8, 0, 7]","[8, 1, 8, 8, 5, 8, 0, 7]",True
29,21,"[0.9655990999999631, 1.5482245000002877, 1.9651286999996955, 2.331538399999772, 2.7649586999996245, 3.865307300000495, 4.314545299999736, 5.614951100000326]","[6, 8, 2, 7, 7, 2, 6, 6]","[6, 2, 8, 2, 7, 7, 2, 7]",False
29,22,"[0.6839052999985142, 1.531663399999161, 1.9317389999996522, 2.2982138999996096, 2.681628599999385, 3.5151790999989316, 3.8644502999995893, 4.1648477999988245, 4.481330299999172]","[8, 6, 3, 4, 1, 2, 0, 3, 0]","[8, 6, 4, 3, 4, 6, 0, 2, 0]",False
29,23,"[0.814801599999555, 1.5982280999996874, 2.1644813000002614, 2.6983217999986664, 3.364842899998621, 3.7976760000001377, 4.297807599999942, 4.681370000000243, 5.497592499999882]","[5, 0, 3, 5, 3, 0, 1, 0, 4]","[5, 3, 0, 5, 3, 0, 1, 4, 0]",False
29,24,"[2.3150325999995403, 2.931588699999338, 3.531137599999056, 3.7148351999985607, 4.4986101999984385, 5.014432999998462, 5.714625900000101, 6.264986599999247, 7.914935599999808]","[6, 3, 2, 0, 0, 6, 6, 1, 7]","[3, 2, 0, 0, 6, 0, 1, 7, 7]",False
30,1,"[0.9484374000003299, 1.3483871999997064]","[5, 5]","[5, 5]",True
30,2,"[0.7988907999997537, 1.5985958999999639]","[7, 8]","[7, 8]",True
30,3,"[0.46470080000017333, 0.9489070999998148]","[0, 8]","[0, 8]",True
30,4,"[0.8820806000003358, 1.3497436999996353, 1.7984728999999788]","[6, 3, 6]","[6, 3, 6]",True
30,5,"[1.1811852000000727, 1.8650988999997935, 2.5480509999997594]","[1, 6, 2]","[1, 6, 2]",True
30,6,"[0.8482963999995263, 1.4480710999996518, 2.1317575999992187]","[4, 2, 7]","[4, 2, 7]",True
30,7,"[0.7488623999997799, 1.0821167000003697, 1.86506879999979, 2.5337112000006528]","[6, 6, 5, 0]","[6, 6, 5, 0]",True
30,8,"[0.7819358000006105, 1.631708100000651, 2.182136100000207, 2.498696800000289]","[6, 4, 5, 5]","[6, 4, 5, 5]",True
30,9,"[0.6483476000003066, 1.2479245000004084, 1.7315742000000682, 2.21477380000033]","[2, 0, 1, 0]","[2, 0, 1, 0]",True
30,10,"[0.865183299999444, 1.4650504999999612, 1.9312841999999364, 2.681719399999565, 3.281273699999474]","[4, 2, 0, 2, 0]","[4, 2, 0, 2, 0]",True
30,11,"[0.9652286999998978, 1.5649883999994927, 2.047947099999874, 2.6486895999996705, 3.0656639999997424]","[6, 1, 0, 4, 8]","[6, 1, 0, 4, 8]",True
30,12,"[0.9150579999995898, 1.3983816999998453, 1.8154151999997339, 2.23180979999961, 2.765375799999674]","[1, 2, 5, 2, 7]","[1, 2, 5, 2, 7]",True
30,13,"[0.4812203999999838, 0.8981753999996727, 1.614536600000065, 1.948091100000056, 2.5315128000002005, 2.6983851000004506]","[2, 3, 1, 1, 5, 5]","[2, 3, 1, 1, 5, 5]",True
30,14,"[1.4653180000004795, 2.198002400000405, 2.7312704000005397, 3.1484779000002163, 3.448235200000454, 3.981806900000265]","[6, 2, 1, 5, 5, 4]","[6, 2, 1, 5, 5, 4]",True
30,15,"[0.6320856000002095, 1.1322786000000633, 1.6149316999999428, 2.582162900000185, 2.9822142000002714, 3.9483819000006406]","[8, 7, 4, 7, 6, 8]","[8, 7, 4, 7, 8, 6]",False
30,16,"[0.8316115999996327, 1.3156589000000167, 1.7815504000000146, 2.347884400000112, 2.8648377999998047, 3.3822001999997156, 3.898005899999589]","[1, 6, 3, 0, 2, 8, 2]","[1, 6, 3, 0, 2, 8, 2]",True
30,17,"[0.43127459999959683, 1.698469699999805, 2.0479914999996254, 2.4813414000000193, 3.064951600000313, 3.68111990000034, 4.0980862999995225]","[2, 3, 5, 2, 8, 2, 1]","[2, 5, 3, 2, 8, 2, 1]",False
30,18,"[0.6648982000006072, 0.8814572999999655, 1.2655430000004344, 1.898741599999994, 2.8319021000006614, 3.18129350000072, 3.6150577000007615]","[0, 0, 8, 7, 4, 1, 3]","[0, 0, 8, 7, 4, 1, 3]",True
30,19,"[0.41458439999951224, 1.28130179999971, 1.4310173999992912, 1.9980927999995401, 2.93147880000015, 5.631236799999897, 6.714611200000036, 7.298306599999705]","[2, 0, 0, 4, 2, 0, 5, 4]","[2, 0, 0, 4, 2, 0, 4, 5]",False
30,20,"[0.8819872999993095, 1.5152957999998762, 2.2487484999992375, 3.850277699999424, 4.315106499999274, 5.448431199999504, 6.098600599999372, 6.564948700000059]","[4, 6, 5, 3, 3, 5, 4, 1]","[4, 6, 5, 5, 3, 6, 4, 1]",False
30,21,"[1.431738299999779, 1.7814333000005718, 2.16491649999989, 2.5152728000002753, 2.965115699999842, 3.715219700000489, 4.198576300000241, 4.814800600000126]","[4, 1, 4, 8, 3, 0, 5, 7]","[4, 1, 4, 8, 3, 7, 5, 0]",False
31,1,"[0.9819348999990325, 1.9316760999990947]","[8, 5]","[8, 5]",True
31,2,"[0.9812911999997596, 1.714853800000128]","[3, 4]","[3, 4]",True
31,3,"[1.765058400000271, 2.8487174000001687]","[4, 8]","[4, 8]",True
31,4,"[0.7487427999985812, 1.71519139999873, 2.498537399998895]","[5, 6, 4]","[5, 6, 4]",True
31,5,"[1.081509499999811, 1.565051699999458, 2.3488338999995904]","[2, 2, 7]","[2, 2, 7]",True
31,6,"[1.0653884000003018, 1.7981400999997277, 1.981421999998929]","[5, 0, 0]","[5, 0, 0]",True
31,7,"[0.9479731999999785, 1.6819347000000562, 1.8816786000006687, 2.5650966000011977]","[1, 6, 6, 4]","[1, 6, 6, 4]",True
31,8,"[0.6982880999985355, 1.4149837999993906, 2.0151028000000224, 2.6151708999987022]","[5, 3, 4, 5]","[5, 3, 4, 5]",True
31,9,"[1.082187600000907, 1.7650891000012052, 2.4146611000014673, 3.065114100001665]","[7, 2, 1, 7]","[7, 2, 1, 7]",True
31,10,"[0.7649225000004662, 1.4148391999988235, 1.6150304999991931, 2.3812694999996893, 3.0317214999995485]","[5, 4, 4, 2, 8]","[5, 4, 4, 2, 8]",True
31,11,"[0.6982786999997188, 1.1646424999998999, 1.798006600000008, 2.3817598999994516, 3.0646405999996205]","[5, 1, 2, 4, 0]","[5, 1, 2, 4, 0]",True
31,12,"[0.5978025000003981, 1.731790900001215, 2.2815132000014273, 2.9321660000005068, 3.665240400001494]","[0, 4, 1, 8, 7]","[0, 4, 1, 8, 7]",True
31,13,"[0.6487434999999095, 1.2992761000004975, 1.9318531999997504, 2.548685599998862, 3.181315199999517, 5.332179900000483]","[5, 7, 3, 5, 7, 0]","[5, 7, 3, 5, 0, 7]",False
31,14,"[0.7647980999990978, 1.465362599999935, 2.048517899998842, 4.715496099999655, 5.3815998999998556, 6.131747299999915]","[0, 6, 4, 0, 2, 8]","[0, 6, 4, 8, 2, 8]",False
31,15,"[1.148474300000089, 1.6819237999989127, 2.3315137999998115, 2.964883699998609, 3.3818814999995084, 4.064833200000066]","[5, 5, 3, 4, 4, 0]","[5, 5, 3, 4, 4, 0]",True
31,16,"[0.9149043999987043, 3.148420499999702, 3.8816569999999047, 4.064693099999204, 5.032119299999977, 6.881370299999617, 8.26468339999883]","[1, 4, 3, 7, 2, 2, 6]","[1, 4, 3, 3, 7, 2, 2]",False
31,17,"[1.181439500000124, 2.331130500000654, 3.3981807000000117, 4.498495100000582, 5.414872999999716, 8.31492849999995, 9.498177299999952]","[0, 0, 4, 0, 4, 6, 3]","[0, 0, 4, 6, 3, 4, 3]",False
31,18,"[0.9318500000008498, 2.05032410000058, 2.798616400001265, 3.4483593000004475, 4.215191999999661, 6.048408800001198, 6.78162809999958]","[6, 5, 8, 2, 7, 5, 6]","[6, 5, 8, 2, 7, 5, 6]",True
31,19,"[0.7487823999999819, 4.548005100001319, 5.948292200000651, 6.364769400001023, 6.981277099999716, 8.314962800001013, 9.098150700001497, 11.331177600000956]","[6, 0, 4, 1, 1, 8, 4, 2]","[6, 0, 4, 4, 1, 8, 2, 2]",False
31,20,"[1.1154420000002574, 2.482002900000225, 3.2980888999991294, 4.731443399999989, 6.398491899999499, 7.048130999999557, 7.798321499998565, 9.414912000000186]","[7, 6, 2, 3, 8, 2, 0, 7]","[7, 6, 2, 0, 8, 2, 6, 2]",False
31,21,"[1.265041000000565, 2.2986545999992813, 3.0485294999998587, 3.8484021999993274, 5.450326700000005, 6.114958399999523, 6.731815999999526, 10.448083200000838]","[1, 6, 7, 6, 7, 4, 5, 7]","[1, 6, 7, 6, 7, 5, 4, 1]",False
32,1,"[0.9489123000003019, 1.2821964000013395]","[8, 8]","[8, 8]",True
32,2,"[0.9816311000013229, 1.6655017000011867]","[3, 6]","[3, 6]",True
32,3,"[0.8647352999996656, 1.6984528000011778]","[2, 3]","[2, 3]",True
32,4,"[0.6487307999996119, 1.3648831999998947, 2.1983796000004077]","[5, 0, 2]","[5, 0, 2]",True
32,5,"[1.1169427000004362, 1.415221000001111, 1.9314456000010978]","[8, 8, 0]","[8, 8, 0]",True
32,6,"[0.7485032000004139, 1.4986554000006436, 2.1319573000000673]","[3, 5, 4]","[3, 5, 4]",True
32,7,"[0.5313415999989957, 1.5981074999999691, 2.2663924999997107, 2.914874999998574]","[3, 1, 7, 2]","[3, 1, 7, 2]",True
32,8,"[0.8817347000003792, 1.5145929000009346, 2.1319333000010374, 2.6820774000007077]","[2, 0, 5, 4]","[2, 0, 5, 4]",True
32,9,"[0.7174928999993426, 1.215091100000791, 1.6480640999998286, 1.8479888000001665]","[5, 2, 1, 1]","[5, 2, 1, 1]",True
32,10,"[0.9145697000003565, 1.4984502000006614, 1.9488696000007621, 2.7320321000006516, 3.731822800000373]","[0, 6, 8, 7, 4]","[0, 6, 8, 7, 4]",True
32,11,"[0.9979797000014514, 1.531504300000961, 2.131734900000083, 2.849866700000348, 3.481039199999941]","[1, 2, 4, 6, 0]","[1, 2, 4, 6, 0]",True
32,12,"[0.8478556999998546, 1.6479684999994788, 2.215088299999479, 2.8651981000002706, 3.6647049999992305]","[1, 0, 8, 6, 1]","[1, 0, 8, 6, 1]",True
32,13,"[0.9153532999989693, 1.1156960999996954, 1.9488034000005428, 2.71554549999928, 3.498825799999395, 4.298558000000412]","[6, 6, 7, 8, 7, 8]","[6, 6, 7, 8, 7, 8]",True
32,14,"[0.8150022999998328, 1.5148685000003752, 2.300030800000968, 3.181362999999692, 3.8150865999996313, 4.414555299999847]","[5, 7, 6, 1, 7, 1]","[5, 7, 6, 5, 7, 1]",False
32,15,"[0.8823513000006642, 1.6831129000001965, 2.5156533000008494, 2.7989266000004136, 3.548332099999243, 3.8152704000003723]","[7, 6, 7, 7, 4, 4]","[7, 6, 7, 7, 4, 4]",True
32,16,"[0.83109610000065, 1.4485765999997966, 2.1476097000013397, 5.097922200000539, 5.597634800000378, 6.147915600000488, 6.414614900000743]","[0, 8, 1, 3, 0, 3, 3]","[0, 8, 1, 3, 0, 3, 3]",True
32,17,"[1.2317210999990493, 1.7486033999994106, 2.2487069999988307, 2.781743399998959, 4.199314499999673, 4.798823899998752, 5.31518159999905]","[6, 8, 3, 6, 7, 5, 3]","[3, 6, 8, 3, 3, 7, 5]",False
32,18,"[0.9652413000003435, 3.116520599998694, 3.614589099999648, 5.248105399999986, 5.981143699998938, 6.698072699999102, 8.114952199999607]","[4, 6, 0, 8, 0, 2, 6]","[6, 8, 3, 2, 0, 6, 6]",False
32,19,"[1.4152709000009054, 2.3319078000004083, 3.331352799999877, 6.014992399999755, 7.581949000001259, 8.96635470000001, 9.614851000000272, 11.315334099999745]","[7, 1, 3, 5, 1, 6, 4, 1]","[7, 3, 1, 5, 6, 1, 4, 7]",False
32,20,"[1.0652945999991061, 1.998919699999533, 4.114793200000349, 4.800127299999076, 5.498826900000495, 6.2982876999994915, 9.098212900000362, 9.714633399999002]","[7, 6, 6, 3, 8, 3, 8, 1]","[7, 6, 3, 6, 8, 1, 3, 3]",False
32,21,"[1.4490992999999435, 2.1818280999996205, 2.7649055999991106, 3.315180199999304, 3.531729499998619, 5.215475799999695, 5.948347399998966, 6.5152140999998664]","[3, 2, 3, 4, 8, 2, 2, 4]","[3, 2, 3, 2, 2, 8, 2, 4]",False
33,1,"[2.0480428999999276, 2.764663699999801]","[1, 1]","[1, 1]",True
33,2,"[2.3313874000004944, 3.01481160000003]","[2, 3]","[2, 3]",True
33,3,"[1.5811841999993703, 2.4149846000000252]","[2, 8]","[2, 8]",True
33,4,"[0.5151853999996092, 1.2312778999994407, 1.7481327999994392]","[4, 1, 1]","[4, 1, 1]",True
33,5,"[0.6985696000001553, 1.414896299999782, 2.2649443000000247]","[3, 0, 1]","[3, 0, 1]",True
33,6,"[0.9813538999997036, 1.7486323999992237, 2.4485023999995974]","[1, 5, 7]","[1, 5, 7]",True
33,7,"[0.9648346000003585, 1.4812256000004709, 2.148462699999982, 2.598243000000366]","[2, 2, 3, 3]","[2, 2, 3, 3]",True
33,8,"[1.081730100000641, 1.581707500000448, 2.481528799999978, 3.89859720000004]","[5, 5, 4, 6]","[5, 5, 4, 6]",True
33,9,"[1.448691499999768, 2.1313751999996384, 2.7314118999993298, 3.3152884000000995]","[6, 2, 0, 6]","[6, 2, 0, 6]",True
33,10,"[0.9819535999995423, 1.581239899999673, 2.5652035000002797, 3.431330899999921, 4.265290399999685]","[7, 0, 5, 2, 5]","[7, 0, 5, 2, 5]",True
33,11,"[0.8980569000004834, 1.5820834000005561, 2.232225400000061, 2.7481347000002643, 3.1987042000000656]","[2, 7, 8, 1, 8]","[2, 7, 8, 1, 8]",True
33,12,"[0.8487483999997494, 1.7170316000001549, 4.682090000000244, 5.364451700000245, 6.016789199999948]","[7, 5, 7, 0, 4]","[7, 5, 7, 0, 4]",True
33,13,"[1.1982062999995833, 1.9979506999998193, 2.5984494000003906, 3.381341600000269, 4.181757999999718, 5.047911499999827]","[1, 0, 8, 3, 5, 0]","[1, 0, 8, 3, 5, 0]",True
33,14,"[1.3981580999998187, 2.0820904000001974, 2.7145485999999437, 3.6316165999996883, 6.816641999999774, 7.381795399999646]","[0, 7, 0, 0, 5, 6]","[0, 7, 0, 5, 7, 6]",False
33,15,"[1.131499399999484, 4.883552600000257, 5.514548499999364, 6.115145499999926, 6.781299600000239, 7.281424699999661]","[2, 8, 0, 8, 2, 3]","[2, 8, 0, 8, 2, 3]",True
33,16,"[0.7814768999996886, 1.7146647999998095, 2.2978808999996545, 3.0812686999997823, 3.931555799999842, 4.531557399999656, 5.181383699999969]","[3, 5, 1, 4, 8, 8, 7]","[3, 5, 1, 4, 8, 8, 7]",True
33,17,"[0.9165722999996433, 1.7312939000003098, 2.398667600000408, 2.8985657000002902, 4.864538300000277, 5.348227399999814, 6.598043199999665]","[1, 7, 1, 1, 4, 3, 0]","[3, 1, 7, 4, 1, 1, 3]",False
33,18,"[0.8146845000001122, 1.5980206000003818, 5.048425799999677, 5.848513300000377, 6.714948800000457, 7.431602900000144, 8.29943860000003]","[0, 3, 0, 8, 4, 5, 6]","[0, 3, 8, 7, 5, 5, 6]",False
33,19,"[0.7480442999994921, 1.1986336999998457, 1.7813307999995232, 2.464984700000059, 5.116745499999524, 5.73107600000003, 6.414443499999834, 7.948253399999885]","[0, 7, 3, 6, 8, 8, 1, 7]","[0, 7, 3, 6, 8, 1, 0, 7]",False
33,20,"[1.1822685000006459, 1.831989799999974, 2.9315262000000075, 3.4318241000000853, 4.1325010999998995, 4.581955200000266, 5.33162799999991, 5.864872099999957]","[4, 6, 1, 8, 6, 6, 2, 1]","[4, 6, 1, 8, 6, 6, 4, 2]",False
33,21,"[0.614832899999783, 1.1649054999998043, 1.6147772999993322, 1.8649286999998367, 2.364895599999727, 3.065295800000058, 3.7480869999999413, 4.147680500000206]","[2, 3, 2, 3, 6, 2, 6, 0]","[2, 3, 2, 2, 3, 6, 2, 0]",False
34,1,"[2.2653886000007333, 2.981420399999479]","[8, 1]","[8, 1]",True
34,2,"[0.6479949000004126, 1.348107700001492]","[0, 1]","[0, 1]",True
34,3,"[0.8146102000009705, 1.4817980000007083]","[1, 7]","[1, 7]",True
34,4,"[0.8484469000013632, 1.5486080000009679, 2.2147880000011355]","[4, 7, 2]","[4, 7, 2]",True
34,5,"[0.7148003999991488, 1.1483264999988023, 1.5313292999999248]","[2, 4, 1]","[2, 4, 1]",True
34,6,"[0.947612099998878, 1.548156900000322, 2.147961700000451]","[0, 5, 1]","[0, 5, 1]",True
34,7,"[0.6815284000003885, 1.38200660000075, 2.014958400000978, 2.7650424999992538]","[3, 8, 4, 5]","[3, 8, 4, 5]",True
34,8,"[0.6314554000000498, 1.1480547999999544, 1.6646644000011293, 2.1809905000009167]","[1, 3, 1, 0]","[1, 3, 1, 0]",True
34,9,"[1.0317734999989625, 1.5484888999999384, 2.1314700999992056, 2.6647706999992806]","[3, 5, 4, 1]","[3, 5, 4, 1]",True
34,10,"[0.5317349999986618, 1.1985102999988158, 1.7979758999990736, 2.2644368999990547, 2.8147126999992906]","[3, 8, 0, 0, 1]","[3, 8, 0, 0, 1]",True
34,11,"[0.8820469000002049, 1.4817004999986239, 1.9483874999987165, 2.4651592999998684, 2.9478909999997995]","[6, 7, 3, 5, 0]","[6, 7, 3, 5, 0]",True
34,12,"[0.8481308999998873, 1.4485938000016176, 1.8644695000002685, 2.3981597000001784, 2.9814280999999028]","[5, 7, 1, 3, 5]","[5, 7, 1, 3, 5]",True
34,13,"[0.8321114000009402, 1.631454100001065, 2.2655143000010867, 2.7983908000005613, 3.448473800001011, 3.9811361000010947]","[7, 3, 8, 4, 7, 0]","[7, 3, 8, 4, 7, 0]",True
34,14,"[0.8317533000008552, 1.4313428999994358, 1.7979558999995788, 2.2996471999995265, 2.931147499999497, 3.5483423999994557]","[5, 0, 0, 5, 2, 5]","[5, 0, 0, 5, 2, 5]",True
34,15,"[0.6987050999996427, 1.3153516000002128, 2.248786599999221, 3.199809499999901, 3.981446399999186, 4.415256399999635]","[8, 7, 6, 4, 0, 7]","[8, 7, 6, 4, 0, 7]",True
34,16,"[0.8147392000009859, 1.3483025000005, 1.9649313999998412, 2.6313528999999107, 3.1815158000008523, 3.6983531000005314, 4.3318307000008645]","[1, 1, 4, 1, 1, 5, 4]","[1, 1, 4, 1, 1, 5, 4]",True
34,17,"[0.8818854999990435, 1.465065099999265, 1.9152920999986236, 3.0645283999983803, 3.715245800000048, 4.232025799999974, 4.648045799998727]","[7, 6, 5, 1, 6, 7, 3]","[7, 6, 5, 1, 6, 7, 3]",True
34,18,"[0.7652152999999089, 1.3653174999999464, 1.9646272000009048, 2.548649899999873, 3.0313621000004787, 3.5150573999999324, 4.014701000000059]","[8, 6, 2, 3, 7, 5, 1]","[8, 6, 2, 7, 3, 5, 1]",False
34,19,"[0.9650297999996837, 2.430987699999605, 3.182003199999599, 3.7150901000004524, 4.281718500000352, 5.498145300000033, 5.897917600001165, 8.114790499999799]","[4, 0, 8, 5, 5, 4, 6, 1]","[4, 0, 8, 8, 5, 6, 1, 4]",False
34,20,"[0.5315346999996109, 1.1480310000006284, 1.8481609000009485, 2.16475840000021, 2.6982946999996784, 4.048373499999798, 4.631679800000711, 5.064642299999832]","[2, 0, 2, 3, 8, 2, 1, 1]","[2, 0, 2, 2, 3, 8, 8, 1]",False
34,21,"[0.5980435999990732, 1.23202449999917, 1.6649249000001873, 2.2650066999995033, 3.1146717999999964, 3.5483735999987402, 3.9978613999992376, 5.064809399998921]","[1, 8, 4, 5, 2, 8, 6, 2]","[1, 8, 4, 5, 2, 6, 1, 2]",False
36,1,"[0.7154226000002382, 1.4334708000005776]","[5, 1]","[5, 1]",True
36,2,"[0.9319129000004978, 1.58413660000042]","[3, 8]","[3, 8]",True
36,3,"[0.6487009000002217, 1.0987789999999222]","[5, 8]","[5, 8]",True
36,4,"[0.7481527999998434, 1.3487713000004078, 1.9648316000002524]","[0, 7, 3]","[0, 7, 3]",True
36,5,"[0.5317921000005299, 1.0819330000003902, 2.115330399999948]","[5, 4, 6]","[5, 4, 6]",True
36,6,"[0.8649648999999044, 1.3152867999997397, 1.9150018999998792]","[0, 6, 4]","[0, 6, 4]",True
36,7,"[0.8823445999996693, 1.4320694999996704, 1.8988708999995652, 2.2489629000001514]","[8, 6, 8, 8]","[8, 6, 8, 8]",True
36,8,"[0.7817682999993849, 1.2819949999993696, 1.8839797000000544, 2.5812099999993734]","[2, 4, 2, 0]","[2, 4, 2, 0]",True
36,9,"[0.5827924000004714, 1.1653829000006226, 1.7984710000000632, 2.0654113000000507]","[2, 6, 7, 7]","[2, 6, 7, 7]",True
36,10,"[0.9151837999997952, 1.7651841999995668, 2.331623000000036, 2.8314093999997567, 3.2149670999997397]","[7, 4, 5, 1, 5]","[7, 4, 5, 1, 5]",True
36,11,"[0.6320613999996567, 1.3481828000003588, 2.0149325000002136, 2.398341000000073, 2.8319424000001163]","[2, 0, 2, 2, 7]","[2, 0, 2, 2, 7]",True
36,12,"[1.2315895000001547, 2.0979682000006505, 3.2814138000003368, 4.081637900000715, 4.71469210000032]","[4, 3, 0, 3, 1]","[4, 0, 3, 3, 1]",False
36,13,"[0.5322126999999455, 0.9816434000003937, 1.6489740999995774, 2.4821325000002616, 4.464944100000139, 4.998293200000262]","[6, 1, 8, 6, 4, 2]","[6, 1, 8, 6, 4, 2]",True
36,14,"[1.4986186000005546, 1.8821229000004678, 2.365304200000537, 2.7319186000004265, 3.2487435000002733, 3.5819541999999274]","[7, 2, 5, 5, 6, 5]","[7, 2, 5, 5, 6, 5]",True
36,15,"[0.7152365000001737, 1.2814236999993227, 1.7487843999997494, 2.1153213999996296, 2.6315883999996004, 3.165029400000094]","[4, 2, 6, 5, 4, 3]","[4, 2, 6, 5, 4, 3]",True
36,16,"[0.8316225999997187, 1.9314943999997922, 2.631844900000033, 3.1980925999996543, 3.734117199999673, 5.864663800000017, 7.048227199999928]","[0, 2, 3, 7, 1, 2, 7]","[0, 2, 3, 1, 7, 1, 2]",False
36,17,"[0.5321102000007158, 0.9813762000003408, 1.5150512000000163, 2.0984698000002027, 2.5484950999998546, 3.2486245000000054, 3.7651919999998427]","[6, 1, 4, 3, 3, 5, 4]","[6, 1, 4, 3, 3, 5, 4]",True
36,18,"[0.7153376999995089, 1.6977974999999788, 2.3487030999995113, 3.1480011000003287, 3.8830872999997155, 4.298101599999427, 4.7485711999997875]","[6, 0, 8, 2, 1, 1, 5]","[6, 0, 8, 2, 1, 1, 5]",True
36,19,"[0.782271000000037, 1.1656115999994654, 1.7152303999992, 2.1152124999998705, 3.2646199999999226, 3.848443299999417, 5.448137399999723, 6.265773399999489]","[7, 8, 4, 0, 5, 1, 6, 2]","[7, 8, 4, 4, 0, 6, 1, 2]",False
36,20,"[1.131654000000708, 1.7488873000002059, 2.5484231000000364, 3.64821480000046, 3.9150863000004392, 4.5321184000004, 5.098935700000766, 5.4488062000000355]","[5, 7, 6, 2, 2, 7, 8, 8]","[5, 7, 6, 2, 2, 7, 8, 8]",True
36,21,"[0.8649332999993931, 1.6647738000001482, 2.3314903000000413, 2.9320035000000644, 3.748056800000086, 5.314837400000215, 6.081456899999466, 6.66483960000005]","[3, 2, 0, 1, 4, 1, 4, 4]","[3, 2, 0, 5, 1, 4, 1, 4]",False
36,22,"[0.9987732999998116, 1.4482637000000977, 3.6151844999994864, 4.2650754999995115, 4.950707699999839, 6.11479429999963, 6.9314094000001205, 7.4488374000002295, 8.76510159999998]","[7, 2, 6, 6, 5, 6, 4, 0, 5]","[7, 2, 6, 5, 6, 4, 0, 5, 5]",False
36,23,"[2.08203500000036, 2.63185489999978, 3.414910000000418, 4.014607099999921, 5.181462200000169, 5.748497499999758, 6.981092699999863, 8.414680500000031, 11.714252800000395]","[5, 3, 1, 1, 8, 0, 8, 1, 0]","[5, 3, 1, 1, 0, 8, 0, 3, 0]",False
36,24,"[0.8320168999998714, 1.3482458999997107, 2.0315763999997216, 2.3816851000001407, 2.7316920000002938, 3.2145222999997713, 3.8984303999995973, 4.814946899999995, 5.248556300000018]","[1, 3, 5, 1, 5, 0, 4, 0, 5]","[5, 3, 1, 5, 5, 0, 4, 5, 5]",False
37,1,"[0.8318524000005709, 1.7986482000005708]","[3, 8]","[3, 8]",True
37,2,"[1.3833549000000858, 2.7153290000005654]","[5, 0]","[5, 0]",True
37,3,"[1.68175760000031, 2.731302900000628]","[3, 1]","[3, 1]",True
37,4,"[0.6647179999999935, 1.48156519999975, 2.3813419999996768]","[0, 0, 3]","[0, 0, 3]",True
37,5,"[1.081695199999558, 2.0314164999999775, 2.7980370999994193]","[6, 0, 2]","[6, 0, 2]",True
37,6,"[0.9666438999993261, 2.098478499999146, 2.7150510999999824]","[7, 3, 3]","[7, 3, 3]",True
37,7,"[1.314641799999663, 2.182008400000086, 3.098607899999479, 3.900821000000178]","[0, 4, 7, 4]","[0, 4, 7, 4]",True
37,8,"[1.4485175999998319, 2.3989205999996557, 3.2982026999998197, 4.01510270000017]","[7, 4, 1, 7]","[7, 4, 1, 7]",True
37,9,"[1.0812436999995043, 1.8646532999991905, 2.7646771999998236, 3.581167999999707]","[0, 3, 1, 2]","[0, 3, 1, 2]",True
37,10,"[1.0486743999999817, 2.0149687000002814, 2.8818355000003066, 3.7312763999998424, 4.414847099999861]","[5, 3, 8, 2, 2]","[5, 3, 8, 2, 2]",True
37,11,"[1.1154976000007082, 2.0320330000004105, 2.665199900000516, 3.2651172000005317, 3.798765000000458]","[7, 6, 4, 3, 3]","[7, 6, 4, 3, 3]",True
37,12,"[1.048248699999931, 1.9986367000001337, 2.83186459999979, 3.531923800000186, 4.381900999999743]","[0, 5, 4, 2, 8]","[0, 5, 4, 2, 8]",True
37,13,"[0.7650553000003129, 1.7488948999998684, 2.7485944000000018, 3.5326482000000397, 4.248131100000137, 4.714829700000337]","[1, 8, 4, 7, 3, 4]","[1, 8, 4, 7, 3, 4]",True
37,14,"[0.7984467999995104, 1.4478643999991618, 1.9817347999996855, 2.6979115999993155, 3.231822299999294, 3.6996769999996104]","[4, 0, 3, 1, 4, 4]","[4, 0, 3, 1, 4, 4]",True
37,15,"[2.298638899999787, 3.11663580000004, 3.6503382000000784, 4.948375999999371, 5.697803899999599, 6.781791299999895]","[6, 4, 6, 3, 1, 5]","[6, 4, 6, 3, 1, 5]",True
37,16,"[1.2651158999997278, 1.898073100000147, 2.7482890000001134, 4.84829179999997, 8.198632199999338, 9.364843199999996, 11.29850549999992]","[6, 5, 2, 6, 2, 7, 2]","[6, 2, 5, 2, 7, 2, 6]",False
37,17,"[2.0658000000003085, 3.0312857999997505, 3.997699399999874, 5.298381200000222, 6.115200999999615, 10.714972699999635, 11.981321899999784]","[1, 2, 7, 0, 7, 7, 6]","[7, 2, 0, 7, 7, 6, 6]",False
37,18,"[1.0479734000000462, 2.01465940000071, 2.5653345000000627, 3.298813300000802, 4.797953600000255, 5.598433600000135, 6.198474200000419]","[0, 1, 6, 8, 1, 7, 5]","[0, 1, 6, 8, 1, 7, 5]",True
37,19,"[0.7983270999993692, 1.73183649999919, 2.800074599999789, 3.9819739999993544, 4.59891769999922, 5.215648800000054, 5.698258200000055, 7.01482759999999]","[1, 3, 7, 7, 1, 4, 1, 4]","[1, 3, 7, 5, 7, 1, 4, 4]",False
37,20,"[0.6151646999996956, 1.348010599999725, 2.066608400000405, 3.4314805000003616, 5.598203399999875, 8.93121500000052, 9.447465199999897, 10.18113429999994]","[5, 4, 6, 6, 4, 3, 0, 5]","[5, 4, 6, 3, 4, 3, 0, 5]",False
37,21,"[0.7810421000003771, 1.4648900000001959, 2.5478855000001204, 3.4979216000001543, 4.11510139999973, 4.914061100000254, 6.397437300000092, 6.864586499999859]","[2, 6, 5, 3, 8, 1, 1, 7]","[2, 6, 5, 3, 8, 1, 1, 7]",True
37,22,"[0.7150233000002117, 1.4817627000002176, 2.7315754999999626, 3.6151470000004338, 4.348259600000347, 5.648488100000577, 6.78098190000037, 7.164369699999952, 7.998119900000347]","[3, 7, 5, 5, 6, 4, 8, 0, 5]","[3, 7, 5, 5, 6, 8, 0, 0, 5]",False
37,23,"[1.4162733000002845, 2.5153313999999227, 3.1482347999999547, 3.897864500000651, 4.5645000000004075, 5.232189700000163, 6.114984100000584, 6.748451899999964, 7.648300100000597]","[5, 7, 6, 5, 4, 1, 0, 8, 3]","[5, 6, 1, 0, 0, 8, 3, 5, 1]",False
37,24,"[0.6649880999993911, 1.5820099000002301, 2.532246899999336, 3.498370199999954, 4.815016300000025, 6.1146036000000095, 7.031272100000024, 7.698407899999438, 8.364787099999376]","[3, 8, 7, 2, 1, 1, 2, 1, 8]","[3, 8, 7, 2, 2, 1, 1, 5, 4]",False
39,1,"[1.0322113000001991, 1.4815474999995786]","[8, 4]","[8, 4]",True
39,2,"[0.7314900000001217, 1.4485304999998334]","[3, 7]","[3, 7]",True
39,3,"[1.2818987000009656, 1.8819631000005757]","[4, 8]","[4, 8]",True
39,4,"[0.5651328999992984, 1.0819646999989345, 1.748101699999097]","[4, 6, 0]","[4, 6, 0]",True
39,5,"[0.8653321999991022, 1.3482490999995207, 1.715176399999109]","[5, 3, 3]","[5, 3, 3]",True
39,6,"[0.8147514000011142, 1.5150481000000582, 2.131906100001288]","[2, 3, 8]","[2, 3, 8]",True
39,7,"[0.8648135000003094, 1.3317622000013216, 1.7649724000002607, 2.2483277000010276]","[0, 3, 3, 2]","[0, 3, 3, 2]",True
39,8,"[0.6485048000013194, 1.1318476000014925, 1.6149126000000251, 2.3153279000016482]","[3, 5, 2, 5]","[3, 5, 2, 5]",True
39,9,"[0.7656399999996211, 1.2815065999984654, 1.8658870999988721, 2.1484223999996175]","[8, 1, 2, 2]","[8, 1, 2, 2]",True
39,10,"[0.6985949999998411, 1.0484264999995503, 1.431431099999827, 2.3817264000008436, 2.814900999999736]","[4, 3, 2, 3, 4]","[4, 3, 2, 3, 4]",True
39,11,"[0.7143489999998565, 1.2980556000002252, 1.7482614000000467, 2.1480286000005435, 2.748756400000275]","[0, 1, 3, 4, 8]","[0, 1, 3, 4, 8]",True
39,12,"[0.6485463999997592, 1.2145560999997542, 1.6983997999996063, 2.248410000000149, 2.9648610000003828]","[6, 1, 7, 8, 5]","[6, 1, 7, 8, 5]",True
39,13,"[0.6986532999999326, 1.2643585999994684, 1.9150093999996898, 2.531414400000358, 3.21499810000023, 3.881341899999825]","[8, 0, 6, 1, 6, 5]","[8, 0, 6, 1, 6, 5]",True
39,14,"[0.7147088000001531, 1.3316937999989023, 1.8826933999989706, 2.3650915999987774, 2.6485391999995045, 3.2980203999995865]","[2, 5, 2, 5, 5, 2]","[2, 5, 2, 5, 5, 2]",True
39,15,"[1.4981110000007902, 2.1313857000004646, 3.0648246000000654, 4.147931600000447, 4.748683100000562, 5.331567200000791]","[2, 1, 3, 1, 6, 5]","[2, 1, 3, 1, 6, 5]",True
39,16,"[0.6510011999998824, 1.2815780000000814, 1.9317222999998194, 2.63186670000141, 3.148211800000354, 3.831718900000851, 4.4483961000005365]","[7, 1, 7, 6, 2, 5, 8]","[7, 1, 7, 6, 2, 5, 8]",True
39,17,"[1.0482319000002462, 2.3148528000001534, 2.898841000000175, 3.464583200000561, 3.9979762000002665, 4.731523000000379, 5.431408500000543]","[2, 2, 6, 0, 0, 2, 5]","[2, 2, 6, 0, 0, 6, 5]",False
39,18,"[0.7989894000002096, 1.7823384999992413, 2.5155596000004152, 3.0818799000007857, 3.7651740000001155, 7.5481034000004, 9.498273100000006]","[7, 7, 8, 4, 5, 4, 3]","[7, 8, 8, 4, 5, 3, 4]",False
39,19,"[0.7984827999989648, 1.5155606999996962, 2.064971499999956, 2.581664699999237, 5.732190799999444, 6.081783199999336, 6.4815037999997, 9.098239199998716]","[0, 7, 1, 2, 7, 4, 1, 3]","[0, 7, 1, 2, 7, 4, 3, 2]",False
39,20,"[0.7309672000010323, 1.3483093000013469, 1.914864899999884, 2.3815263000014966, 3.831153799999811, 4.381297600000835, 5.0483503000014025, 6.0474157000007835]","[0, 7, 4, 4, 3, 4, 6, 0]","[0, 7, 4, 4, 2, 3, 6, 0]",False
39,21,"[0.7819080000008398, 1.3151624000001902, 2.0817095000002155, 2.898570200000904, 3.598687499999869, 3.9816272000007302, 4.465102300000581, 5.615233700000317]","[6, 5, 2, 7, 6, 3, 5, 6]","[6, 5, 2, 7, 6, 2, 3, 6]",False
40,1,"[1.614736499999708, 2.597791000000143]","[1, 0]","[1, 0]",True
40,2,"[1.2314440999998624, 2.0154582000004666]","[0, 6]","[0, 6]",True
40,3,"[1.632028299999547, 2.2319256999999197]","[6, 7]","[6, 7]",True
40,4,"[0.9648655999999391, 1.7654392999993433, 2.498225700000148]","[3, 8, 7]","[3, 8, 7]",True
40,5,"[0.9988561000000118, 1.7650982999994085, 3.2655109999996057]","[6, 3, 8]","[6, 3, 8]",True
40,6,"[1.0988304000002245, 2.0322494000001825, 3.014882000000398]","[7, 8, 4]","[7, 8, 4]",True
40,7,"[0.8480859000001146, 1.4480581000007078, 2.130852600000253, 2.9481516000005286]","[7, 7, 1, 6]","[7, 7, 1, 6]",True
40,8,"[1.165193900000304, 1.664926800000103, 2.916221299999961, 3.815005000000383]","[5, 5, 7, 3]","[5, 5, 7, 3]",True
40,9,"[0.8650874000004478, 1.9480333999999857, 2.7004784000000654, 3.6645642000003136]","[4, 2, 5, 0]","[4, 2, 5, 0]",True
40,10,"[0.8148435000002792, 1.4822752000000037, 2.248097200000302, 3.065187799999876, 3.8483037000005424]","[1, 7, 4, 8, 5]","[1, 7, 4, 8, 5]",True
40,11,"[0.9152443000002677, 1.6312297000004037, 2.365361300000586, 3.214696200000617, 4.014961900000344]","[5, 2, 8, 5, 3]","[5, 2, 8, 5, 3]",True
40,12,"[2.8982256999997844, 3.5481042999999772, 4.398051199999827, 6.464686999999685, 7.181062700000439]","[1, 4, 3, 7, 1]","[4, 1, 3, 4, 1]",False
40,13,"[0.8815268999996988, 3.0150088000000324, 3.731576899999709, 4.847855500000151, 5.598445200000242, 14.714714300000196]","[4, 6, 6, 2, 8, 7]","[4, 6, 6, 2, 8, 6]",False
40,14,"[1.0316954999998416, 1.8147321999995256, 2.86441990000003, 3.7479997999998886, 4.698660499999278, 5.398433399999703]","[3, 2, 0, 3, 6, 6]","[3, 2, 0, 3, 6, 6]",True
40,15,"[1.0822504999996454, 1.815688499999851, 2.4479992999995375, 3.065299299999424, 3.798490999999558, 4.498442799999793]","[6, 8, 0, 7, 4, 3]","[6, 8, 0, 7, 4, 3]",True
40,16,"[1.1483772000001409, 2.064516800000092, 2.8655085999998846, 3.681746000000203, 4.464845200000127, 5.231608600000072, 5.932180400000107]","[6, 1, 7, 5, 3, 0, 7]","[6, 1, 7, 5, 3, 7, 0]",False
40,17,"[2.314282800000001, 2.948067700000138, 3.6649523999994926, 4.514899900000273, 8.947986500000297, 9.54770660000031, 10.231564900000194]","[7, 1, 6, 1, 8, 2, 1]","[1, 4, 6, 1, 0, 2, 7]",False
40,18,"[1.0146170999996684, 2.0984496000000945, 3.1985506000000896, 4.281251899999916, 5.3816593999999895, 6.34847179999997, 7.347677200000362]","[1, 5, 0, 1, 3, 0, 1]","[1, 5, 7, 0, 5, 3, 1]",False
43,1,"[2.2819781000007424, 2.9986529000007067]","[7, 8]","[7, 8]",True
43,2,"[1.5817315000003873, 2.3645100000003367]","[3, 0]","[3, 0]",True
43,3,"[1.9821127000004708, 2.448354800000743]","[6, 2]","[6, 2]",True
43,4,"[1.5484505000003992, 2.7485725000005914, 2.9151183000003584]","[5, 6, 6]","[5, 6, 6]",True
43,5,"[1.4318414999997913, 1.8988976999999068, 2.4819618999999875]","[3, 8, 7]","[3, 8, 7]",True
43,6,"[1.6485517999999502, 2.1980641999998625, 2.7156275000006644]","[7, 0, 8]","[7, 0, 8]",True
43,7,"[1.4820618000003378, 2.315392499999689, 3.1485466000003726, 3.9650007999998707]","[5, 7, 4, 6]","[5, 7, 4, 6]",True
43,8,"[1.54812099999981, 3.014936100000341, 3.564914200000203, 4.2317369000002145]","[3, 4, 1, 7]","[3, 4, 1, 7]",True
43,9,"[3.065071099999841, 3.5498163000002023, 4.3984504000000015, 4.931959600000482]","[5, 2, 6, 5]","[5, 2, 6, 5]",True
43,10,"[1.3654170999998314, 2.4316085000000385, 3.1502595000001747, 3.750569599999835, 4.415306799999598]","[5, 4, 2, 4, 6]","[5, 4, 2, 5, 6]",False
43,11,"[1.7485530000003564, 2.198667900000146, 2.8660118999996484, 3.198547199999666, 3.9482913000001645]","[8, 8, 6, 6, 7]","[8, 8, 6, 6, 7]",True
43,12,"[1.0499570000001768, 1.731411200000366, 2.2815999000004012, 2.7979683000003206, 3.464996099999553]","[0, 2, 4, 0, 2]","[0, 2, 4, 0, 2]",True
43,13,"[0.8483056000004581, 1.3982284000003347, 1.9651748000005682, 2.48096120000082, 3.0152524000004632, 3.664744300000166]","[3, 4, 2, 0, 6, 5]","[3, 2, 4, 0, 6, 5]",False
43,14,"[4.74822099999983, 5.264634699999988, 5.964382499999374, 8.165029299999333, 8.81551749999926, 9.464994099999785]","[1, 0, 3, 8, 7, 5]","[3, 1, 0, 4, 8, 7]",False
43,15,"[1.5154610000008688, 2.2815775000008216, 2.7814610000004905, 3.2979864000008092, 3.9487613000001147, 4.331898500000534]","[6, 3, 2, 1, 6, 3]","[6, 3, 2, 1, 6, 3]",True
43,16,"[2.365080599999601, 3.214998899999955, 3.765110999999706, 5.248321600000054, 5.698007299999517, 6.181470200000149, 6.748206999999638]","[5, 5, 4, 1, 7, 8, 2]","[5, 4, 0, 3, 1, 7, 8]",False
43,17,"[1.6488149999995585, 3.0663699999995515, 3.881711500000165, 6.4330621999997675, 6.9151311999994505, 8.13151199999993, 8.931518499999584]","[6, 6, 2, 6, 0, 4, 1]","[6, 6, 2, 0, 3, 4, 1]",False
43,18,"[1.1988484000003155, 1.6486607000006188, 2.2487026000007972, 2.848509500000546, 3.4487308000007033, 4.015165600000728, 4.448032200000853]","[6, 7, 3, 6, 7, 2, 6]","[6, 7, 3, 6, 7, 3, 2]",False
44,1,"[0.8983162000004086, 1.4821131999997306]","[2, 6]","[2, 6]",True
44,2,"[1.131578599999557, 1.8813964000000851]","[4, 0]","[4, 0]",True
44,3,"[1.315447499999209, 1.9980594999997265]","[6, 2]","[6, 2]",True
44,4,"[0.7652947000005952, 1.348587000000407, 2.0650485999995]","[2, 5, 2]","[2, 5, 2]",True
44,5,"[0.9320219000001089, 2.564817000000403, 3.1151726999996754]","[8, 3, 7]","[8, 3, 7]",True
44,6,"[0.7146302000001015, 1.3488031000015326, 2.0154708999998547]","[0, 4, 7]","[0, 4, 7]",True
44,7,"[0.848807600001237, 1.6815923000012845, 2.2645840000004682, 2.8654341000001295]","[7, 1, 0, 7]","[7, 1, 0, 7]",True
44,8,"[1.0151667999998608, 1.6815310999991198, 2.381965799999307, 3.1980410999985907]","[4, 4, 7, 3]","[4, 4, 7, 3]",True
44,9,"[0.9151945000012347, 1.6812719000008656, 2.448164600000382, 3.2649082000007184]","[4, 1, 3, 2]","[4, 1, 3, 2]",True
44,10,"[0.8483581000000413, 1.3983254000013403, 1.9983231000005617, 2.498213900000337, 3.0644916000001103]","[2, 2, 5, 1, 0]","[2, 2, 5, 1, 0]",True
44,11,"[1.1480010999985097, 1.665198299999247, 2.215224199999284, 2.6987795999993978, 3.431987999998455]","[1, 5, 8, 8, 7]","[1, 5, 8, 8, 7]",True
44,12,"[0.9500674999999319, 1.515151199999309, 2.048541500000283, 2.6319671999990533, 3.2651635999991413]","[4, 4, 7, 6, 4]","[4, 4, 7, 6, 4]",True
44,13,"[1.081457300000693, 1.5313707000004797, 2.264897099999871, 2.8819106000009924, 3.798675500000172, 4.598560500000531]","[2, 2, 8, 1, 7, 5]","[2, 2, 1, 8, 7, 5]",False
44,14,"[0.8153325000002951, 1.2479509999993752, 1.7156291999999667, 2.481892499999958, 3.165253799999846, 3.681712300000072]","[8, 0, 8, 7, 5, 5]","[8, 0, 8, 7, 5, 5]",True
44,15,"[0.865200600001117, 1.4815651000008074, 2.04779950000011, 2.5984397000011086, 4.048030600000857, 4.581445199999507]","[8, 5, 0, 6, 3, 4]","[8, 5, 0, 6, 3, 4]",True
44,16,"[1.8314515000001848, 2.382859899998948, 2.8815795999998954, 3.2821491999984573, 3.7484384999988833, 4.399700099998881, 5.048334399998566]","[0, 2, 4, 7, 4, 5, 3]","[0, 2, 4, 7, 4, 5, 3]",True
44,17,"[3.5148406000007526, 4.116421500000797, 4.498477500001172, 5.014711499999976, 5.398646200001167, 5.964905599999838, 6.532020300001022]","[1, 0, 8, 2, 7, 6, 8]","[1, 0, 8, 2, 7, 6, 8]",True
44,18,"[0.7982882000014797, 1.281743200001074, 1.7336107000010088, 2.3315250000014203, 3.3484205000004295, 3.9980342000017117, 4.5317909000004875]","[2, 3, 4, 1, 4, 0, 6]","[2, 3, 4, 1, 4, 0, 6]",True
44,19,"[0.7986596999999165, 1.2480981000007887, 1.5655917000003683, 2.0986682000002475, 2.5648471000004065, 3.33166859999983, 4.531585099999575, 5.715131299999484]","[7, 8, 0, 6, 0, 3, 2, 5]","[7, 0, 8, 6, 3, 5, 5, 5]",False
44,20,"[2.231632400000308, 2.7314881999991485, 3.231584799999837, 3.681960399999298, 4.132265099999131, 4.698240399999122, 5.148471999998947, 5.6982706999988295]","[0, 4, 1, 8, 8, 3, 7, 5]","[4, 0, 1, 8, 8, 3, 7, 5]",False
44,21,"[1.081929100000707, 1.6820375999996031, 2.281780400000571, 2.7648188000002847, 3.3482736999994813, 3.948520500000086, 4.564447200000359, 5.747807400000966]","[6, 7, 6, 6, 7, 7, 6, 2]","[6, 7, 6, 6, 7, 6, 2, 2]",False
47,1,"[0.898996200000056, 1.7315838000004078]","[7, 1]","[7, 1]",True
47,2,"[1.1990018999999847, 2.0156544000001304]","[7, 8]","[7, 8]",True
47,3,"[0.7819392999999764, 1.2815256999997473]","[8, 6]","[8, 6]",True
47,4,"[1.0154913999999735, 2.164889200000289, 3.1154672000002392]","[5, 1, 7]","[5, 1, 7]",True
47,5,"[1.0311494999996285, 1.5981713999999556, 2.5321171999999024]","[0, 4, 8]","[0, 4, 8]",True
47,6,"[0.9983438000003844, 1.982174500000383, 2.5652014000002055]","[1, 7, 7]","[1, 7, 7]",True
47,7,"[0.8323083000000224, 1.515071899999839, 2.3149545000001126, 2.9152844000000186]","[7, 2, 1, 5]","[7, 2, 1, 5]",True
47,8,"[0.548360700000103, 1.3817211999999017, 2.2480399999999463, 2.54828950000001]","[4, 8, 4, 4]","[4, 8, 4, 4]",True
47,9,"[0.8149784000002, 1.4649004000002606, 2.182018599999992, 2.748256500000025]","[2, 4, 6, 1]","[2, 4, 6, 1]",True
47,10,"[1.1485551000000669, 1.7319503000003351, 2.448076399999991, 3.081387100000029, 3.848502499999995]","[4, 3, 0, 2, 3]","[4, 3, 0, 2, 3]",True
47,11,"[0.7322016000002805, 1.3312169000000722, 1.8983573000000433, 2.565019399999983, 3.114553100000194]","[7, 0, 1, 5, 0]","[7, 0, 1, 5, 0]",True
47,12,"[0.6652849000001879, 1.1647241000000577, 1.8315698000001248, 2.3478832000000693, 3.081287599999996]","[4, 3, 1, 0, 2]","[4, 3, 1, 0, 2]",True
47,13,"[0.9155033000001822, 1.6483570999998847, 2.2651279000001523, 2.5314109000000826, 3.1505964000002677, 3.8650195000000167]","[7, 5, 2, 2, 6, 3]","[7, 5, 2, 2, 6, 3]",True
47,14,"[0.9979833000002145, 1.5985682999998971, 2.298211700000138, 2.9482171999998172, 3.6320230000001175, 4.331895799999984]","[1, 6, 4, 5, 7, 6]","[1, 6, 4, 5, 7, 6]",True
47,15,"[0.8478845999998157, 1.798665599999822, 3.0647711999999956, 3.631511000000046, 4.315158999999767, 4.898062899999786]","[2, 8, 2, 0, 8, 6]","[2, 8, 2, 0, 8, 6]",True
47,16,"[0.7315699000000677, 1.165186800000356, 1.7650204999999914, 2.298437500000091, 2.8485092000000805, 3.6148995000003197, 4.365213900000072]","[0, 6, 5, 3, 7, 2, 8]","[0, 6, 5, 3, 7, 2, 8]",True
47,17,"[0.81533810000019, 1.3650228999999854, 2.0812408000001597, 2.6648497999999563, 3.148940699999912, 3.7984471999998277, 4.331713699999909]","[8, 1, 0, 1, 8, 3, 6]","[8, 1, 0, 1, 8, 3, 6]",True
47,18,"[0.8815916000003199, 1.5151189000002887, 2.1149363000004087, 2.8315255000002253, 3.5149429000002783, 3.8980712000002313, 4.448150300000179]","[2, 7, 1, 5, 3, 1, 5]","[2, 7, 1, 5, 3, 1, 5]",True
47,19,"[1.3486797999998998, 2.2818483999999444, 2.9479081999998016, 3.2478822999996737, 5.514781299999868, 6.182113399999707, 6.382068399999753, 7.015176799999608]","[7, 6, 0, 0, 1, 8, 8, 5]","[5, 7, 0, 0, 1, 8, 8, 5]",False
47,20,"[0.7816949999996723, 1.4478699999999662, 1.9981993999999759, 2.848507100000006, 3.5978000000000065, 4.115155899999991, 6.032085800000004, 7.397450999999819]","[8, 0, 6, 7, 3, 6, 0, 7]","[8, 0, 6, 7, 3, 6, 7, 0]",False
47,21,"[0.86460790000001, 1.648779099999956, 2.314850600000227, 3.0981627999999546, 3.5986166000002413, 4.214725499999986, 4.915083500000037, 5.381528700000217]","[0, 7, 0, 1, 6, 0, 7, 2]","[0, 7, 0, 1, 6, 0, 7, 2]",True
47,22,"[0.8317606000000524, 1.565105399999993, 2.4483484000002136, 3.298520300000291, 3.749981299999945, 4.198636200000237, 4.664436900000055, 4.8977859000001445, 7.681420700000217]","[3, 5, 3, 5, 6, 1, 6, 0, 0]","[5, 3, 5, 3, 1, 6, 0, 0, 1]",False
47,23,"[1.565011599999707, 2.181646499999715, 2.614802399999917, 3.1985796999997547, 4.3147925999996914, 5.032044000000042, 5.8812089999996715, 6.431450600000062, 7.3479551999998876]","[0, 1, 7, 4, 2, 4, 8, 7, 3]","[2, 4, 0, 7, 3, 8, 1, 4, 0]",False
47,24,"[0.7986657000001287, 1.4477062000000842, 2.131645899999967, 2.7150400000000445, 3.5482904999998937, 4.381628699999965, 4.847876400000132, 6.081430100000034, 6.831923799999913]","[8, 0, 8, 3, 4, 5, 0, 8, 2]","[8, 0, 8, 3, 4, 5, 0, 5, 2]",False
48,1,"[1.5150955999997677, 2.5653338000001895]","[2, 7]","[2, 7]",True
48,2,"[1.7651418000004924, 2.3650979000003645]","[3, 3]","[3, 3]",True
48,3,"[1.998458500000197, 2.731846200000291]","[3, 4]","[3, 4]",True
48,4,"[1.0820474000001923, 1.398855000000367, 2.1486111000003802]","[6, 6, 7]","[6, 6, 7]",True
48,5,"[1.0480955000002723, 1.548347200000535, 2.265255799999977]","[1, 2, 7]","[1, 2, 7]",True
48,6,"[1.1486697999998796, 1.7487728999994943, 2.3315303999997923]","[6, 8, 2]","[6, 8, 2]",True
48,7,"[1.0820581999996648, 1.681254799999806, 2.414850299999671, 3.1478463999992528]","[8, 0, 3, 2]","[8, 0, 3, 2]",True
48,8,"[0.9484749000002921, 1.2821273999998084, 1.9484345999999277, 2.8652271000000837]","[8, 8, 5, 6]","[8, 8, 5, 6]",True
48,9,"[0.7482535999997708, 1.4646904000001086, 2.04868020000049, 2.9317958999999973]","[3, 0, 4, 5]","[3, 0, 4, 5]",True
48,10,"[1.0336528999996517, 1.5484169999999722, 2.3312801000001855, 3.0645723999996335, 3.38121239999964]","[5, 3, 2, 0, 0]","[5, 3, 2, 0, 0]",True
48,11,"[0.9981127000000924, 1.7148550000001705, 2.898070999999618, 3.5321093000002293, 4.0154248999997435]","[0, 1, 0, 8, 8]","[0, 1, 0, 8, 8]",True
48,12,"[0.7983928999992713, 1.5485155999995186, 1.714891699999498, 2.531597099999999, 3.0317070999999487]","[4, 5, 5, 6, 8]","[4, 5, 5, 6, 8]",True
48,13,"[0.7984721000002537, 1.3481159000002663, 2.1648832000000766, 2.7820535999999265, 3.481639399999949, 4.097895200000494]","[2, 3, 2, 7, 6, 2]","[2, 3, 2, 7, 6, 2]",True
48,14,"[2.7315268000002106, 3.165062900000521, 4.698307900000145, 5.581813200000397, 6.347956600000543, 6.781485900000007]","[5, 5, 4, 5, 0, 6]","[5, 5, 4, 5, 0, 6]",True
48,15,"[1.6979965000000448, 3.648363500000414, 8.547967000000426, 10.964702900000702, 13.681834400000298, 14.147961300000134]","[0, 5, 6, 4, 0, 4]","[0, 5, 0, 4, 6, 4]",False
48,16,"[0.6480915000001914, 1.298438000000715, 2.0151017000007414, 2.5815705000004527, 3.217063000000053, 3.764820200000031, 4.2319986000002245]","[3, 7, 3, 2, 2, 4, 7]","[3, 7, 3, 2, 4, 2, 7]",False
48,17,"[0.5645567000001392, 1.183879700000034, 6.848039399999834, 7.398074699999597, 8.081206699999711, 8.514718299999913, 9.964614900000015]","[1, 7, 8, 0, 2, 5, 1]","[1, 7, 1, 2, 0, 5, 2]",False
48,18,"[1.381948100000045, 1.9149783000002571, 2.398850200000197, 3.4982811999998376, 4.298529599999711, 8.63131820000035, 11.497554700000364]","[8, 2, 2, 5, 4, 7, 3]","[8, 2, 8, 5, 4, 3, 0]",False
51,1,"[1.6479715000004944, 2.2488021000008303]","[1, 8]","[1, 8]",True
51,2,"[1.5984084000010625, 2.2155512000008457]","[4, 8]","[4, 8]",True
51,3,"[0.8481993999994302, 1.3981485000003886]","[5, 2]","[5, 2]",True
51,4,"[0.7987668999994639, 1.5317200999998022, 2.248036700000739]","[8, 4, 3]","[8, 4, 3]",True
51,5,"[1.0651109000009455, 1.615550100001201, 2.3151691000002756]","[5, 8, 5]","[5, 8, 5]",True
51,6,"[0.8989347999995516, 1.6816312999999354, 2.3651781999997183]","[8, 5, 4]","[8, 5, 4]",True
51,7,"[0.8651563999992504, 1.7315827999991598, 2.3147300999989966, 3.1156460999991396]","[4, 5, 3, 8]","[4, 5, 3, 8]",True
51,8,"[0.7315809000010631, 1.1812391000003117, 1.6650874999995722, 2.8485500999995566]","[1, 0, 6, 5]","[1, 0, 6, 5]",True
51,9,"[0.9978136000008817, 1.8480141000000003, 2.2815444999996544, 3.181713399999353]","[3, 8, 7, 8]","[3, 8, 7, 8]",True
51,10,"[0.7816157999986899, 1.2821562999997695, 1.7318670999993628, 2.39830129999973, 3.1151843999996345]","[1, 8, 8, 2, 7]","[1, 8, 8, 2, 7]",True
51,11,"[0.6821963000002143, 1.28200150000157, 1.9645130000008066, 2.4981666000003315, 3.01503970000158]","[7, 6, 0, 4, 3]","[7, 6, 0, 4, 3]",True
51,12,"[0.9313593999995646, 1.7318811000004644, 2.1986109999998007, 2.9817093999990902, 3.7654865000004065]","[1, 5, 6, 3, 7]","[1, 5, 6, 3, 7]",True
51,13,"[0.7818779999997787, 1.4644715000013093, 2.7811922000000777, 3.5651512000004004, 4.048673500001314, 4.567155500000808]","[7, 0, 3, 8, 7, 7]","[7, 0, 3, 8, 7, 7]",True
51,14,"[0.9482341000002634, 1.6650385000011738, 2.0649921000003815, 2.781304699999964, 3.0317021000009845, 3.664610100000573]","[7, 6, 6, 4, 4, 2]","[7, 6, 6, 4, 4, 2]",True
51,15,"[0.7499160999996093, 1.2151367000005848, 1.931846499999665, 2.7146203000011155, 3.480966500001159, 4.031552399999782]","[0, 4, 5, 0, 1, 2]","[0, 4, 5, 1, 0, 2]",False
51,16,"[0.8321219000008568, 1.3321751000003133, 2.131766200000129, 2.8477139999995416, 3.415319100000488, 3.915422400001262, 4.515017600000647]","[7, 8, 3, 0, 7, 8, 4]","[7, 8, 3, 0, 7, 8, 4]",True
51,17,"[0.9647884999994858, 1.6819455999993806, 2.2986015000005864, 3.9484057999998186, 4.615400900000168, 5.632013700000243, 7.898223800000778]","[2, 1, 7, 4, 8, 3, 5]","[2, 1, 7, 3, 8, 5, 5]",False
51,18,"[1.1322385999992548, 1.5489644999997836, 2.1145909000006213, 2.965355099999215, 3.665390000000116, 4.4488320000000385, 5.13184899999942]","[8, 0, 0, 7, 5, 7, 5]","[8, 8, 0, 7, 5, 7, 5]",False
51,19,"[0.8819705000005342, 1.2819753999992827, 2.031332900000052, 2.498599299999114, 3.814420599999721, 4.8643394999999146, 5.431072800000038, 6.131403199999113]","[7, 7, 2, 6, 0, 0, 1, 5]","[7, 7, 2, 6, 0, 0, 1, 5]",True
51,20,"[0.531549500001347, 1.1985254000010173, 1.9145411000008608, 2.5311146000003646, 3.1501746000012645, 3.7651383000011265, 4.298286299999745, 4.981265000000349]","[2, 1, 8, 5, 0, 6, 6, 8]","[2, 8, 1, 0, 5, 6, 6, 0]",False
51,21,"[0.9154510999997001, 2.0643646999997145, 2.7311420000005455, 3.248223599999619, 3.964915700000347, 4.531177000000753, 4.965308599999844, 5.616142099999706]","[8, 2, 0, 2, 5, 7, 8, 0]","[8, 0, 2, 5, 7, 0, 8, 0]",False
51,22,"[0.7484906000008777, 1.2819070000005013, 1.7484170999996422, 2.4819349000008515, 3.164939599999343, 3.547950399999536, 4.264814500000284, 4.864971999999398, 5.465220399999453]","[5, 3, 6, 7, 2, 2, 1, 6, 3]","[5, 3, 6, 7, 2, 2, 1, 6, 3]",True
51,23,"[0.6148697000007814, 1.348446199999671, 2.0985443000008672, 2.8811318000007304, 4.514492000000246, 5.0649811000002956, 6.131690500000332, 8.331354699999793, 8.731383399999686]","[3, 7, 0, 2, 5, 0, 0, 4, 2]","[3, 7, 5, 0, 0, 6, 4, 2, 2]",False
51,24,"[0.7645578000010573, 1.3145667000007961, 1.964829100001225, 3.981191200000467, 4.514634800001659, 4.864610300001004, 5.631093400001191, 6.347654200000761, 6.6823266000010335]","[0, 1, 6, 4, 3, 3, 4, 3, 3]","[0, 1, 6, 4, 3, 3, 4, 3, 3]",True
51,25,"[1.6481686999995873, 2.881719399998474, 3.5315964999990683, 4.28191489999881, 5.081136199998582, 6.064432699999088, 7.13290059999963, 8.198261399998955, 9.464403199999651, 10.41478879999886]","[2, 5, 0, 8, 0, 0, 5, 6, 0, 6]","[2, 5, 0, 8, 0, 0, 2, 6, 0, 6]",False
51,26,"[0.8151344999987487, 1.4816984999997658, 1.9814711999988504, 3.1982935999985784, 3.731718399998499, 4.0815796999995655, 4.614268499999525, 5.164876199998616, 5.681663199999093, 7.898136699999668]","[8, 6, 2, 7, 2, 4, 4, 0, 5, 3]","[8, 6, 2, 7, 4, 4, 0, 5, 3, 3]",False
51,27,"[1.1313518999995722, 1.6479342000002362, 2.714671300000191, 3.16510290000042, 3.7811026999988826, 4.231207499999073, 5.3814227000002575, 5.8477595999993355, 6.43135059999986, 7.014980500000092]","[3, 4, 3, 5, 4, 3, 4, 1, 0, 7]","[3, 4, 2, 5, 0, 1, 3, 4, 7, 7]",False
52,1,"[1.031821200000195, 1.614944099999775]","[3, 0]","[3, 0]",True
52,2,"[1.1821327999996356, 1.7507301999994525]","[6, 3]","[6, 3]",True
52,3,"[1.881729699999596, 2.5981040999995457]","[5, 2]","[5, 2]",True
52,4,"[0.7651686999997764, 1.2980557999999291, 2.0654045000001133]","[4, 3, 4]","[4, 3, 4]",True
52,5,"[1.1153225000007296, 1.965308100000584, 2.9481691000000865]","[4, 5, 0]","[4, 5, 0]",True
52,6,"[1.0145800999998755, 1.9314671000001908, 2.18167799999992]","[0, 3, 3]","[0, 3, 3]",True
52,7,"[1.01557320000029, 1.6819545000007565, 2.7153158000000985, 3.531676100000368]","[4, 5, 8, 4]","[4, 5, 8, 4]",True
52,8,"[1.0650868000002447, 1.6816662999999608, 2.5818766000002142, 3.1486056000003373]","[4, 3, 4, 3]","[4, 3, 4, 3]",True
52,9,"[0.6650834000001851, 1.2817048999995677, 1.898620199999641, 2.4320686000000933]","[2, 6, 3, 6]","[2, 6, 3, 6]",True
52,10,"[0.9148456000002625, 1.515179299999545, 1.8651052999994135, 2.5318806999994194, 3.131539199999679]","[4, 8, 8, 7, 3]","[4, 8, 8, 7, 3]",True
52,11,"[1.0649015999997573, 1.831418599999779, 3.7331561999999394, 4.465384400000403, 4.865506699999969]","[0, 2, 0, 7, 7]","[0, 2, 0, 7, 7]",True
52,12,"[1.3485681000001932, 2.031865900000412, 2.948691399999916, 4.098939700000301, 4.915285300000505]","[5, 5, 6, 8, 7]","[5, 5, 6, 8, 7]",True
52,13,"[2.648411500000293, 3.248610099999496, 3.8316711999996187, 4.8651928999997835, 5.381749000000127, 6.031698199999482]","[3, 7, 6, 8, 2, 4]","[6, 7, 3, 8, 2, 4]",False
52,14,"[1.2480246000004627, 2.4492675999999847, 3.898729999999887, 5.648262400000021, 6.564537100000052, 7.24791230000028]","[2, 2, 5, 3, 2, 3]","[2, 5, 5, 3, 2, 3]",False
52,15,"[1.0319166999997833, 1.6985930999999255, 2.4988637999995262, 3.6651673999995182, 4.298455799999829, 5.198552300000301]","[5, 3, 8, 4, 4, 8]","[5, 3, 8, 4, 4, 5]",False
54,1,"[0.8319731999999931, 1.5147711000008712]","[8, 2]","[8, 2]",True
54,2,"[1.082200400000147, 1.6651593999995384]","[8, 4]","[8, 4]",True
54,3,"[1.1652672000000166, 1.7315168999994057]","[8, 1]","[8, 1]",True
54,4,"[0.9155245999991166, 1.3323891000000003, 1.915085499998895]","[8, 7, 5]","[8, 7, 5]",True
54,5,"[0.9154548000005889, 1.7816581000006408, 2.515532200000962]","[6, 1, 6]","[6, 1, 6]",True
54,6,"[0.9467687999986083, 1.480681099999856, 2.213838300000134]","[0, 5, 4]","[0, 5, 4]",True
54,7,"[0.7483889999984967, 1.4153180999983306, 2.0981736999983696, 2.6149049999985436]","[2, 5, 2, 1]","[2, 5, 2, 1]",True
54,8,"[0.8317299999998795, 1.4481785000007221, 2.3647135000010167, 2.864650800000163]","[7, 4, 3, 2]","[7, 4, 3, 2]",True
54,9,"[0.7814913999991404, 1.1483387000007497, 1.8156094000005396, 2.44868839999981]","[1, 1, 7, 4]","[1, 1, 7, 4]",True
54,10,"[0.7152481000011903, 1.349099600000045, 1.94791400000031, 2.665210700000898, 3.248201100001097]","[7, 4, 0, 8, 1]","[7, 4, 0, 8, 1]",True
54,11,"[0.6814132999988942, 1.58161199999995, 2.098449499999333, 2.781473899998673, 3.4315759999990405]","[1, 4, 7, 3, 7]","[1, 4, 7, 3, 7]",True
54,12,"[0.5987046999998711, 1.2813714000003529, 1.8655966999995144, 2.4148043999994115, 2.965185400000337]","[8, 1, 7, 2, 3]","[8, 1, 7, 2, 3]",True
54,13,"[0.7816951000004337, 1.1982389000004332, 1.7151714999999967, 2.1320434999997815, 2.7816493999998784, 3.3661410000004253]","[3, 2, 5, 8, 4, 1]","[3, 2, 5, 8, 4, 1]",True
54,14,"[0.9320103999998537, 1.5654527000006055, 2.2147236000000703, 2.698485000000801, 3.033105599999544, 3.365070100000594]","[8, 7, 1, 2, 6, 2]","[8, 7, 1, 6, 2, 6]",False
54,15,"[1.0649441000005027, 1.6483212000002823, 2.2148653999993257, 2.6985772999996698, 3.131564100000105, 3.5817096999999194]","[0, 4, 0, 5, 1, 5]","[0, 4, 0, 5, 1, 5]",True
54,16,"[0.8650179999985994, 1.3655973999993876, 1.8485744999998133, 2.3479384999991453, 2.848422799999753, 3.248052099999768, 3.731783600000199]","[0, 8, 7, 0, 6, 0, 4]","[0, 8, 7, 0, 6, 0, 4]",True
54,17,"[1.181270900000527, 1.8317499000004318, 3.2811369000010018, 4.598312000000078, 5.148468499999581, 5.914778500000466, 6.381428500000766]","[0, 0, 1, 2, 8, 3, 1]","[0, 2, 0, 2, 8, 1, 3]",False
54,18,"[0.6482403000009072, 1.4987332000000606, 1.865146399999503, 2.415201800000432, 3.0817917000003945, 3.6988873000009335, 5.415283899999849]","[1, 6, 6, 5, 3, 8, 5]","[1, 6, 6, 5, 3, 8, 5]",True
54,19,"[0.6984642000006716, 1.3648166000002675, 2.032675400001608, 2.631485800000519, 3.3317406000005576, 4.532484900000782, 5.065451100001155, 5.498608900001273]","[2, 1, 3, 3, 2, 7, 8, 8]","[2, 1, 3, 2, 3, 8, 7, 8]",False
54,20,"[0.6984033999997337, 1.331253000000288, 1.848097099998995, 2.3145464999997785, 3.66491010000027, 4.265044800000396, 4.681813799999873, 5.564090100000612]","[7, 3, 5, 0, 8, 5, 8, 8]","[7, 3, 5, 0, 5, 8, 8, 0]",False
54,21,"[0.9987600000004022, 1.6149414999999863, 2.2652514000001247, 2.831517200000235, 4.181862000001274, 4.615177500001664, 6.232450900000913, 6.731979500000307]","[7, 4, 8, 8, 1, 7, 7, 4]","[7, 4, 8, 1, 8, 8, 7, 7]",False
55,1,"[0.9817198999999164, 1.6647532999995747]","[3, 2]","[3, 2]",True
55,2,"[0.9154434000001856, 1.5313123000005362]","[7, 2]","[7, 2]",True
55,3,"[0.9322660999996515, 1.7651395000002594]","[8, 5]","[8, 5]",True
55,4,"[0.6481030000004466, 1.948283700000502, 3.181331200000386]","[2, 4, 2]","[2, 4, 2]",True
55,5,"[1.098079499999585, 2.031931199999235, 2.7821250999995755]","[2, 5, 7]","[2, 5, 7]",True
55,6,"[0.7655232000006436, 1.5316726000000926, 2.66502280000077]","[8, 1, 6]","[8, 1, 6]",True
55,7,"[0.5811972999999853, 1.2648238000001584, 1.8484556000003067, 2.665147800000341]","[0, 3, 4, 7]","[0, 3, 4, 7]",True
55,8,"[0.7487440999993851, 1.381925699999556, 2.0984436999997342, 2.798029900000074]","[8, 7, 4, 1]","[8, 7, 4, 1]",True
55,9,"[0.6815450000003693, 1.41501210000024, 2.1143776000008074, 2.664614100000108]","[4, 7, 0, 0]","[4, 7, 0, 0]",True
55,10,"[0.5314957000000504, 1.1645939999998518, 1.8316559000004418, 2.4650900000006004, 3.4812192999997933]","[3, 2, 8, 6, 0]","[3, 2, 8, 6, 0]",True
55,11,"[0.664341499999864, 1.2990494000005128, 1.864891400000488, 2.4980727000001934, 3.131037799999831]","[1, 2, 8, 6, 0]","[1, 2, 8, 6, 0]",True
55,12,"[1.3817276999998285, 2.1311032999992676, 2.764849399999548, 3.38143669999954, 3.998572200000126]","[6, 0, 2, 4, 6]","[6, 0, 2, 4, 6]",True
55,13,"[1.3151420999993206, 1.865063199999895, 2.531398000000081, 3.664972499999749, 4.214876899999581, 4.714885899999899]","[8, 5, 1, 7, 3, 2]","[8, 5, 1, 7, 3, 2]",True
55,14,"[0.8315952000002653, 1.697748400000819, 2.365305199999966, 3.8816193000002386, 4.731724300000678, 5.414848400000665]","[6, 7, 4, 1, 7, 4]","[6, 1, 7, 4, 7, 4]",False
55,15,"[2.9144424999994953, 3.56506249999984, 4.11488559999998, 4.8644413000001805, 5.464638999999806, 6.18093510000017]","[0, 3, 2, 0, 2, 1]","[0, 3, 2, 0, 2, 1]",True
55,16,"[0.6152036000003136, 1.1152024000002712, 2.2978696999998647, 3.798061499999676, 4.448480500000187, 4.831947699999546, 5.448182299999644]","[7, 7, 0, 5, 8, 8, 7]","[7, 7, 0, 5, 8, 8, 7]",True
55,17,"[0.8484488000003694, 1.598292599999695, 2.2977294000002075, 2.914628000000448, 3.631910400000379, 4.864969299999757, 5.348272299999735]","[3, 6, 0, 0, 6, 8, 3]","[3, 6, 0, 0, 6, 8, 3]",True
55,18,"[1.1313438999995924, 1.6309166999999434, 2.2650864999995974, 2.8811906000000818, 5.431222100000014, 6.197713399999884, 7.331121799999892]","[2, 0, 1, 7, 1, 2, 1]","[2, 0, 7, 1, 2, 1, 2]",False
55,19,"[0.9818123000004562, 2.131230700000742, 3.083109900000636, 3.6152316000006977, 4.214721700000155, 5.698349200000848, 6.2484566000002815, 8.864613000000645]","[6, 1, 8, 2, 8, 5, 6, 5]","[6, 1, 2, 8, 2, 6, 5, 6]",False
55,20,"[0.7653645000000324, 1.93177630000082, 2.5650596000004953, 3.6480514000004405, 4.481657500000438, 6.015135000000555, 7.047898600000735, 8.165048300000308]","[6, 6, 5, 1, 6, 8, 3, 2]","[6, 5, 6, 1, 3, 5, 2, 5]",False
55,21,"[0.44752229999994597, 1.0996020000002318, 1.6982766000000993, 2.6811885999995866, 3.3814495999995415, 3.9312846000002537, 4.464865199999622, 6.56438210000033]","[0, 1, 5, 8, 2, 0, 3, 7]","[0, 1, 5, 2, 8, 3, 7, 5]",False
56,1,"[2.264859000000797, 3.131998400000157]","[2, 3]","[2, 3]",True
56,2,"[2.281802299999981, 3.031315999999606]","[6, 0]","[6, 0]",True
56,3,"[1.4652698999998393, 2.1316821999998865]","[5, 3]","[5, 3]",True
56,4,"[0.7981998999994175, 1.631595699999707, 2.314633599999979]","[0, 3, 2]","[0, 3, 2]",True
56,5,"[1.182007600000361, 1.865466600000218, 2.6315426999999545]","[5, 3, 1]","[5, 3, 1]",True
56,6,"[1.3818461000000752, 1.83168889999979, 2.5648424999999406]","[4, 0, 3]","[4, 0, 3]",True
56,7,"[1.5651289999996152, 2.848545899999408, 3.165121199999703, 3.832023599999957]","[6, 3, 3, 5]","[6, 3, 3, 5]",True
56,8,"[1.4654753000004348, 2.414875200000097, 3.182275000000118, 3.7982856000007814]","[6, 3, 8, 5]","[6, 3, 8, 5]",True
56,9,"[0.9500809999999547, 1.3322133000001486, 2.081869800000277, 2.7486189000001104]","[8, 8, 6, 4]","[8, 8, 6, 4]",True
56,10,"[0.9152219999996305, 1.6487861999994493, 2.2149865999999747, 2.9488099000000147, 3.8314255999994202]","[4, 7, 5, 6, 1]","[4, 7, 5, 6, 1]",True
56,11,"[1.7987315999998827, 2.631924700000127, 3.1482050000004165, 3.5164652000003116, 4.231999599999654]","[5, 4, 0, 0, 5]","[5, 4, 0, 0, 5]",True
56,12,"[0.798840200000086, 1.4816055999999662, 2.0983299999998053, 2.848458700000265, 3.4649913000002925]","[5, 1, 5, 3, 2]","[5, 1, 5, 3, 2]",True
56,13,"[0.8316844000000856, 1.5981311000005007, 2.4481979000001957, 3.2486994000000777, 3.8810682000003, 4.598114000000351]","[7, 5, 6, 8, 1, 2]","[7, 5, 6, 8, 1, 2]",True
56,14,"[0.9982747000003656, 2.4488000999999713, 2.948254800000541, 3.4812959000000774, 4.114802100000816, 4.715260599999965]","[0, 7, 3, 1, 2, 8]","[0, 7, 3, 1, 2, 8]",True
56,15,"[0.9481522000005498, 1.7333463000004485, 2.381919299999936, 3.681509400000323, 4.198493699999744, 5.265200200000436]","[3, 4, 6, 4, 0, 4]","[3, 4, 6, 4, 0, 4]",True
56,16,"[1.1812724000001253, 1.9142876000005344, 2.716915200000585, 3.347850400000425, 3.981271200000265, 4.6147217000007, 5.281142400000135]","[4, 0, 8, 1, 5, 7, 1]","[4, 0, 8, 1, 5, 7, 1]",True
56,17,"[0.9482962000001862, 1.6978359000004275, 2.097837000000254, 2.7647357000005286, 3.35056700000041, 3.931828400000086, 4.831736300000557]","[2, 0, 0, 2, 3, 8, 7]","[2, 0, 0, 2, 3, 8, 7]",True
56,18,"[0.8651191999997536, 1.6980638000004546, 2.4817510000002585, 3.364575800000239, 4.364502299999913, 4.898354400000244, 5.6985617000000275]","[6, 5, 6, 0, 6, 1, 8]","[6, 5, 6, 0, 1, 6, 8]",False
56,19,"[1.0988882000001468, 2.6148506999998062, 3.548912399999608, 4.164956699999493, 4.881887200000165, 5.448242899999968, 6.04842329999974, 8.014704399999573]","[7, 2, 8, 5, 8, 3, 8, 3]","[7, 2, 8, 5, 8, 2, 3, 3]",False
56,20,"[1.5650209999994331, 2.5820771999997305, 3.2655876999997417, 3.781711399999949, 4.49853129999974, 5.515238500000123, 6.165364899999986, 7.549238699999478]","[4, 8, 4, 5, 7, 4, 5, 6]","[4, 8, 4, 5, 7, 5, 6, 4]",False
56,21,"[1.0818325999998706, 1.681299300000319, 2.448215600000367, 3.1980641999998625, 4.065012000000024, 5.248188900000059, 5.981417099999817, 6.54796720000013]","[6, 0, 3, 2, 5, 4, 5, 1]","[6, 0, 3, 2, 5, 4, 1, 2]",False
58,1,"[2.3317440999999235, 3.282100999999784]","[4, 6]","[4, 6]",True
58,2,"[1.1652320000002874, 1.8317860000006476]","[7, 5]","[7, 5]",True
58,3,"[1.7320245999999315, 2.3818559999999707]","[7, 6]","[7, 6]",True
58,4,"[0.9175021999999444, 1.6150174999993396, 2.2987539999994624]","[5, 1, 7]","[5, 1, 7]",True
58,5,"[1.4319412000004377, 2.264799700000367, 2.9651997000000847]","[7, 0, 3]","[7, 0, 3]",True
58,6,"[1.248501799999758, 2.164773999999852, 2.5816883999996207]","[3, 0, 0]","[3, 0, 0]",True
58,7,"[0.9818120999998428, 1.9315962999999101, 2.647973600000114, 3.43138799999997]","[8, 2, 2, 1]","[8, 2, 2, 1]",True
58,8,"[1.281415599999491, 2.698123299999679, 3.6502840000002834, 4.798347699999795]","[2, 0, 6, 4]","[2, 0, 6, 4]",True
58,9,"[1.1989036999993914, 2.048565099999905, 2.765341499999522, 3.631550299999617]","[7, 7, 5, 2]","[7, 7, 5, 2]",True
58,10,"[0.93213520000063, 1.7813977000005252, 2.515258000000358, 3.2647436000006564, 3.7816546000003655]","[7, 1, 5, 2, 2]","[7, 1, 5, 2, 2]",True
58,11,"[0.9150168000005579, 1.5819541000000754, 2.4150702000006277, 3.0653126000006523, 3.8152391000003263]","[0, 3, 4, 8, 5]","[0, 3, 4, 8, 5]",True
58,12,"[0.8984077000004618, 1.8319671000008384, 2.4151669000002585, 3.0983295000005455, 3.948110700000143]","[4, 6, 7, 6, 5]","[4, 6, 7, 6, 5]",True
58,13,"[0.9490370000003168, 1.7649603999998362, 2.5321406000002753, 3.3647856999996293, 5.816916499999934, 9.681101999999555]","[6, 1, 7, 1, 1, 4]","[6, 1, 7, 1, 4, 1]",False
58,14,"[0.9315153999996255, 1.7818195999998352, 4.698282599999402, 5.614641599999231, 6.4978701, 7.33331249999992]","[0, 3, 3, 0, 2, 6]","[0, 3, 3, 0, 2, 6]",True
58,15,"[0.7650458999996772, 1.847936999999547, 3.282094799999868, 4.131445999999414, 4.931402000000162, 5.698032100000091]","[2, 3, 0, 3, 1, 3]","[2, 0, 3, 0, 1, 3]",False
58,16,"[0.6650318000001789, 1.4321888999993462, 2.0652412999997978, 2.8485657999999603, 3.931833900000129, 4.8311902999994345, 5.714953599999717]","[1, 5, 7, 4, 5, 1, 3]","[1, 5, 7, 4, 5, 1, 3]",True
58,17,"[0.7982378000006065, 1.4481715000001714, 2.3151496000000407, 3.2812111000002915, 4.014620900000409, 4.714803400000164, 5.581850800000211]","[7, 6, 8, 3, 1, 3, 8]","[7, 6, 8, 3, 1, 3, 8]",True
58,18,"[1.2656514000000243, 1.9481967000001532, 2.8819131999998717, 7.531558099999529, 8.848071399999753, 9.764692799999466, 10.681634099999428]","[4, 4, 8, 4, 6, 2, 7]","[4, 4, 8, 6, 2, 4, 7]",False
58,19,"[1.7987276000003476, 2.7815838000005897, 3.482014700000036, 4.281879000000117, 5.1988991000007445, 6.098584600000322, 7.064747900000839, 7.965011200000845]","[7, 1, 5, 3, 8, 7, 6, 5]","[7, 1, 3, 5, 8, 6, 1, 7]",False
58,20,"[0.8818883000003552, 1.4814034999999421, 2.2650201000005836, 2.8150062000004255, 3.5976982000001954, 4.215034000000742, 5.0147412000005716, 6.431627599999956]","[4, 4, 7, 5, 0, 5, 3, 7]","[4, 4, 7, 5, 0, 7, 3, 5]",False
58,21,"[1.1149279999999635, 1.948969300000499, 2.915180599999985, 4.681786400000419, 5.581828000000314, 7.7984033000002455, 8.282261500000459, 9.131116500000644]","[3, 2, 4, 6, 7, 8, 4, 1]","[3, 2, 6, 8, 7, 5, 4, 1]",False
60,1,"[0.914483300000029, 1.49812220000058]","[5, 6]","[5, 6]",True
60,2,"[0.5648914999992485, 1.297045999999682]","[6, 0]","[6, 0]",True
60,3,"[0.7809225000000879, 1.181583600000522]","[6, 4]","[6, 4]",True
60,4,"[0.9810926999998628, 1.5305247999995117, 1.997807799999464]","[7, 0, 6]","[7, 0, 6]",True
60,5,"[1.0478589000003922, 1.516004800000701, 2.0638088000005155]","[5, 7, 1]","[5, 7, 1]",True
60,6,"[0.6809556999996857, 1.1144721999999092, 1.680688999999802]","[6, 5, 3]","[6, 5, 3]",True
60,7,"[0.5804965999996057, 1.2307452999993984, 1.714401799999905, 1.8809203999999227]","[1, 4, 5, 5]","[1, 4, 5, 5]",True
60,8,"[0.41384819999984757, 0.9812775000000329, 1.1475716000004468, 1.8810733000000255]","[2, 6, 6, 0]","[2, 6, 6, 0]",True
60,9,"[0.881086200000027, 1.0312905000000683, 1.8308624000001146, 2.0304095999999845]","[7, 7, 1, 1]","[7, 7, 1, 1]",True
60,10,"[0.8644473000003927, 3.0140758000006826, 3.6975733000008404, 4.197184000000561, 5.2315865000000485]","[4, 0, 3, 0, 5]","[4, 0, 3, 0, 5]",True
60,11,"[0.7637801999999283, 1.3472471000004589, 1.8978602000006504, 2.4143190000004324, 2.915910900000199]","[0, 2, 6, 4, 6]","[0, 2, 6, 4, 6]",True
60,12,"[0.7480025000004389, 1.2304167000002053, 1.6813664999999673, 2.2973083000006227, 2.8479514999999083]","[6, 0, 8, 2, 4]","[6, 0, 8, 2, 4]",True
60,13,"[0.7139055999996344, 1.2471601999995983, 1.764353100000335, 2.1817144999995435, 2.614704300000085, 3.5142886000003273]","[3, 2, 5, 7, 2, 3]","[3, 2, 5, 7, 2, 3]",True
60,14,"[0.7802735999994184, 1.2140193999994153, 1.9138146999994206, 2.080585899999278, 2.748115099999268, 2.8980792999991536]","[1, 4, 0, 0, 5, 5]","[1, 4, 0, 0, 5, 5]",True
60,15,"[0.5980237000003399, 1.214383700000326, 1.8142625999998927, 4.0982496000005995, 4.297916000000441, 4.798187200000029]","[6, 7, 3, 5, 7, 7]","[6, 7, 3, 5, 5, 7]",False
60,16,"[0.7144976999998107, 1.2307700999999724, 1.797685300000012, 1.9978931000005105, 6.064444700000422, 6.247826699999678, 6.614199499999813]","[7, 5, 4, 5, 5, 2, 0]","[7, 4, 5, 5, 2, 2, 0]",False
60,17,"[1.7143299999997907, 4.030930199999602, 4.614621900000202, 5.230954399999973, 5.848380200000065, 6.465367800000422, 7.064481899999919]","[6, 5, 0, 3, 7, 0, 2]","[6, 3, 5, 0, 7, 6, 2]",False
60,18,"[0.5972062999999252, 1.0148511999996117, 1.7809558999997535, 3.5650487000002613, 4.081935899999735, 4.581221100000221, 5.1316702000003716]","[3, 8, 1, 5, 1, 1, 8]","[3, 8, 5, 1, 1, 5, 8]",False
61,1,"[0.9490342000008241, 1.4646981000005326]","[8, 0]","[8, 0]",True
61,2,"[0.8985027999988233, 1.4149603999994724]","[7, 2]","[7, 2]",True
61,3,"[0.6485720000000583, 1.3485877000002802]","[2, 7]","[2, 7]",True
61,4,"[1.2312356999991607, 2.081421799999589, 2.7482921999999235]","[1, 2, 5]","[1, 2, 5]",True
61,5,"[0.8317410999989079, 1.7982792000002519, 2.665070899998682]","[2, 1, 5]","[2, 1, 5]",True
61,6,"[0.7320808000004035, 1.2983721000000514, 1.9817074999991746]","[8, 3, 5]","[8, 3, 5]",True
61,7,"[0.7322211999999126, 1.3818896000011591, 2.3147365000004356, 2.8482230000008713]","[8, 5, 2, 0]","[8, 5, 2, 0]",True
61,8,"[1.3979954000005819, 2.100184499999159, 2.56475859999955, 3.1812654999994265]","[2, 8, 3, 2]","[2, 8, 3, 2]",True
61,9,"[0.7318790999997873, 1.4320857000002434, 2.2314931000000797, 2.7482608999998774]","[6, 8, 1, 6]","[6, 8, 1, 6]",True
61,10,"[0.9816764000006515, 1.5981308999998873, 2.2980631000009453, 3.198372200000449, 4.165503700000045]","[1, 3, 1, 2, 3]","[1, 3, 1, 2, 3]",True
61,11,"[0.7817482999998902, 1.4481651999994938, 2.148784999999407, 3.014737999999852, 3.6484307999999146]","[4, 1, 8, 1, 5]","[4, 1, 8, 1, 5]",True
61,12,"[0.8645769000013388, 1.281458900000871, 2.215215000000171, 4.050614600000699, 6.231696000000738]","[0, 0, 4, 7, 7]","[0, 0, 4, 7, 4]",False
61,13,"[1.1152634999998554, 1.6646968999993987, 2.147991499999989, 2.631384500000422, 3.347873200000322, 4.082122199999503]","[8, 0, 2, 0, 1, 8]","[8, 0, 2, 0, 1, 8]",True
61,14,"[1.0489272000013443, 1.9980426000001899, 2.714959599999929, 3.248863300001176, 3.864892499999769, 4.348645199999737]","[7, 1, 2, 7, 5, 3]","[7, 1, 2, 7, 3, 5]",False
61,15,"[0.48100679999879503, 0.9985866999995778, 1.8147209999988263, 2.415100000000166, 2.9976241999993363, 3.548262899999827]","[0, 7, 1, 5, 7, 0]","[0, 7, 1, 5, 0, 7]",False
61,16,"[0.9989279999990686, 1.598174700000527, 2.0645690000001196, 2.7653398999991623, 4.398213799999212, 5.264809899999818, 5.9987712999991345]","[7, 5, 0, 0, 1, 2, 8]","[7, 0, 0, 5, 2, 1, 7]",False
