sID,trialNumber,nTotal,true_ratio,fillerTrial,ITI,seen_ratio,nMushrooms,nBlue,nRed,estimate1,estimate1RT,estimate2,estimate2RT,estimate_peer,confidence_peer,s,strategy,sex,age,trial_filter
1,1,45,0.5,0,1.5,0.511111111,"9,9,9,9,9","6,3,4,5,5","3,6,5,4,4",50,3.319,50,4.63,65,1,0,stay,Male,24,1
1,2,45,0.125,0,1.9,0.133333333,"9,9,9,9,9","1,2,1,0,2","8,7,8,9,7",8,3.75,12,4.298,24,1,0.25,compromise,Male,24,1
1,4,5,0.25,0,1.7,0.2,"1,1,1,1,1","0,1,0,0,0","1,0,1,1,1",20,4.582,28,7.067,38,2,0.4444444444444444,compromise,Male,24,1
1,5,45,0.375,0,1.6,0.377777778,"9,9,9,9,9","3,4,5,3,2","6,5,4,6,7",40,9.416,30,4.721,23,2,0.5882352941176471,compromise,Male,24,1
1,6,45,0.375,0,1.9,0.377777778,"9,9,9,9,9","5,5,4,1,2","4,4,5,8,7",45,1.847,37,6.685,27,3,0.4444444444444444,compromise,Male,24,1
1,8,5,0.375,0,2,0.4,"1,1,1,1,1","0,1,0,1,0","1,0,1,0,1",40,3.958,32,5.902,25,2,0.5333333333333333,compromise,Male,24,1
1,10,5,0.875,0,1.5,0.8,"1,1,1,1,1","1,0,1,1,1","0,1,0,0,0",80,3.464,88,7.512,97,1,0.47058823529411764,compromise,Male,24,1
1,11,45,0.625,0,1.7,0.622222222,"9,9,9,9,9","3,7,6,6,6","6,2,3,3,3",75,3.493,70,5.277,59,1,0.3125,compromise,Male,24,1
1,13,5,0.625,0,1.7,0.6,"1,1,1,1,1","1,0,0,1,1","0,1,1,0,0",60,2.355,70,4.615,75,3,0.6666666666666666,compromise,Male,24,1
1,14,45,0.75,0,1.9,0.755555556,"9,9,9,9,9","6,7,5,8,8","3,2,4,1,1",85,2.368,75,5.2,70,3,0.6666666666666666,compromise,Male,24,1
1,15,5,0.75,0,1.5,0.8,"1,1,1,1,1","1,1,1,1,0","0,0,0,0,1",80,2.743,70,4.721,65,3,0.6666666666666666,compromise,Male,24,1
1,16,5,0.375,0,1.5,0.4,"1,1,1,1,1","0,1,0,0,1","1,0,1,1,0",40,2.583,33,6.254,25,1,0.4666666666666667,compromise,Male,24,1
1,17,45,0.5,0,1.6,0.511111111,"9,9,9,9,9","3,4,6,5,5","6,5,3,4,4",40,4.528,50,4.256,55,3,0.6666666666666666,compromise,Male,24,1
1,18,45,0.625,0,1.7,0.622222222,"9,9,9,9,9","6,7,5,6,4","3,2,4,3,5",62,3.645,75,4.158,80,3,0.7222222222222222,compromise,Male,24,1
1,19,45,0.25,0,1.5,0.244444444,"9,9,9,9,9","6,0,2,1,2","3,9,7,8,7",20,3.61,23,4.374,37,1,0.17647058823529413,compromise,Male,24,1
1,20,5,0.875,0,1.8,0.8,"1,1,1,1,1","1,0,1,1,1","0,1,0,0,0",80,2.166,85,5.506,97,2,0.29411764705882354,compromise,Male,24,1
1,21,45,0.625,0,1.8,0.622222222,"9,9,9,9,9","7,4,7,5,5","2,5,2,4,4",55,2.368,60,3.978,70,2,0.3333333333333333,compromise,Male,24,1
1,22,5,0.125,0,1.6,0.2,"1,1,1,1,1","0,0,0,1,0","1,1,1,0,1",20,1.652,12,6.582,4,1,0.5,compromise,Male,24,1
1,23,5,0.75,0,1.5,0.8,"1,1,1,1,1","1,1,1,1,0","0,0,0,0,1",80,1.159,72,3.86,63,1,0.47058823529411764,compromise,Male,24,1
1,24,45,0.375,0,1.5,0.377777778,"9,9,9,9,9","4,3,2,5,3","5,6,7,4,6",33,1.548,37,5.324,48,1,0.26666666666666666,compromise,Male,24,1
1,26,5,0.25,0,1.6,0.2,"1,1,1,1,1","1,0,0,0,0","0,1,1,1,1",20,1.326,26,6.819,37,1,0.35294117647058826,compromise,Male,24,1
1,27,5,0.5,0,1.8,0.6,"1,1,1,1,1","1,0,1,0,1","0,1,0,1,0",60,2.186,47,6.637,43,2,0.7647058823529411,compromise,Male,24,1
1,28,5,0.5,0,1.9,0.6,"1,1,1,1,1","1,0,1,1,0","0,1,0,0,1",60,1.438,48,7.248,42,3,0.6666666666666666,compromise,Male,24,1
1,29,45,0.5,0,1.6,0.511111111,"9,9,9,9,9","5,4,4,4,6","4,5,5,5,3",40,4.271,48,6.401,55,2,0.5333333333333333,compromise,Male,24,1
1,30,5,0.125,0,1.8,0.2,"1,1,1,1,1","1,0,0,0,0","0,1,1,1,1",10,6.756,20,9.435,28,3,0.5555555555555556,compromise,Male,24,1
1,32,5,0.625,0,1.6,0.6,"1,1,1,1,1","1,1,0,0,1","0,0,1,1,0",60,2.494,70,5.297,77,2,0.5882352941176471,compromise,Male,24,1
1,34,45,0.875,0,1.5,0.866666667,"9,9,9,9,9","8,9,7,8,7","1,0,2,1,2",90,2.751,85,4.268,72,2,0.2777777777777778,compromise,Male,24,1
1,35,5,0.875,0,1.9,0.8,"1,1,1,1,1","1,1,0,1,1","0,0,1,0,0",80,1.841,95,5.464,96,3,0.9375,compromise,Male,24,1
1,36,5,0.125,0,2,0.2,"1,1,1,1,1","1,0,0,0,0","0,1,1,1,1",20,1.299,13,4.943,5,2,0.4666666666666667,compromise,Male,24,1
1,37,45,0.75,0,2,0.755555556,"9,9,9,9,9","7,7,6,6,8","2,2,3,3,1",85,2.917,82,3.366,69,1,0.1875,compromise,Male,24,1
1,38,5,0.75,0,1.6,0.8,"1,1,1,1,1","0,1,1,1,1","1,0,0,0,0",80,1.652,70,3.041,63,2,0.5882352941176471,compromise,Male,24,1
1,39,45,0.25,0,2,0.244444444,"9,9,9,9,9","2,3,2,2,2","7,6,7,7,7",15,5.819,25,7.665,33,3,0.5555555555555556,compromise,Male,24,1
1,40,45,0.875,0,2,0.866666667,"9,9,9,9,9","8,8,9,8,6","1,1,0,1,3",80,9.792,90,3.437,96,3,0.625,compromise,Male,24,1
1,41,45,0.125,0,1.8,0.133333333,"9,9,9,9,9","1,1,2,0,2","8,8,7,9,7",15,3.5,10,7.783,0,3,0.3333333333333333,compromise,Male,24,1
1,42,5,0.25,0,1.6,0.2,"1,1,1,1,1","1,0,0,0,0","0,1,1,1,1",20,2.923,28,5.651,38,3,0.4444444444444444,compromise,Male,24,1
1,44,5,0.375,0,2,0.4,"1,1,1,1,1","0,1,0,1,0","1,0,1,0,1",40,1.785,30,7.61,22,3,0.5555555555555556,compromise,Male,24,1
1,47,5,0.625,0,2,0.6,"1,1,1,1,1","1,0,1,1,0","0,1,0,0,1",60,1.841,65,4.185,77,1,0.29411764705882354,compromise,Male,24,1
1,51,45,0.25,0,1.9,0.244444444,"9,9,9,9,9","3,2,1,2,3","6,7,8,7,6",15,6.117,22,3.617,30,2,0.4666666666666667,compromise,Male,24,1
1,53,45,0.125,0,1.6,0.133333333,"9,9,9,9,9","2,0,1,1,2","7,9,8,8,7",5,2.202,10,4.268,21,2,0.3125,compromise,Male,24,1
1,54,5,0.5,0,1.5,0.6,"1,1,1,1,1","1,0,1,1,0","0,1,0,0,1",60,3.423,52,4.887,45,1,0.5333333333333333,compromise,Male,24,1
2,1,45,0.375,0,1.6,0.377777778,"9,9,9,9,9","3,5,3,3,3","6,4,6,6,6",35,2.5139,35,3.6965,51,1,0,stay,Male,32,1
2,3,45,0.5,0,1.9,0.511111111,"9,9,9,9,9","6,4,3,4,6","3,5,6,5,3",55,2.3341,45,4.8549,37,2,0.5555555555555556,compromise,Male,32,1
2,4,45,0.875,0,1.7,0.866666667,"9,9,9,9,9","6,8,8,9,8","3,1,1,0,1",90,4.0297,85,6.1063,73,3,0.29411764705882354,compromise,Male,32,1
2,6,45,0.875,0,1.8,0.866666667,"9,9,9,9,9","9,6,9,8,7","0,3,0,1,2",90,1.8481,90,2.5596,74,1,-0,stay,Male,32,1
2,8,45,0.25,0,1.7,0.244444444,"9,9,9,9,9","2,3,5,1,0","7,6,4,8,9",25,2.9975,20,4.5411,9,2,0.3125,compromise,Male,32,1
2,9,5,0.125,0,1.8,0.2,"1,1,1,1,1","0,0,1,0,0","1,1,0,1,1",20,3.4801,15,3.6256,3,2,0.29411764705882354,compromise,Male,32,1
2,11,45,0.375,0,1.6,0.377777778,"9,9,9,9,9","3,2,4,6,2","6,7,5,3,7",37,4.6124,35,3.0806,21,2,0.125,compromise,Male,32,1
2,12,45,0.875,0,2,0.866666667,"9,9,9,9,9","6,8,8,9,8","3,1,1,0,1",85,1.7339,85,4.6439,100,2,0,stay,Male,32,1
2,13,5,0.875,0,1.6,0.8,"1,1,1,1,1","1,1,0,1,1","0,0,1,0,0",80,3.0512,80,3.9272,95,2,0,stay,Male,32,1
2,15,5,0.625,0,1.5,0.6,"1,1,1,1,1","0,0,1,1,1","1,1,0,0,0",60,3.7963,70,3.0086,78,2,0.5555555555555556,compromise,Male,32,1
2,16,5,0.625,0,1.7,0.6,"1,1,1,1,1","1,0,0,1,1","0,1,1,0,0",70,4.8959,70,4.5458,53,1,-0,stay,Male,32,1
2,17,5,0.5,0,1.6,0.6,"1,1,1,1,1","0,1,1,0,1","1,0,0,1,0",60,4.8445,55,4.3747,45,2,0.3333333333333333,compromise,Male,32,1
2,18,5,0.375,0,1.8,0.4,"1,1,1,1,1","0,1,1,0,0","1,0,0,1,1",40,4.4128,35,3.1423,25,2,0.3333333333333333,compromise,Male,32,1
2,19,5,0.75,0,1.8,0.8,"1,1,1,1,1","0,1,1,1,1","1,0,0,0,0",80,2.8474,80,3.3747,65,1,-0,stay,Male,32,1
2,20,5,0.375,0,1.7,0.4,"1,1,1,1,1","0,1,1,0,0","1,0,0,1,1",40,4.8291,35,3.8297,25,3,0.3333333333333333,compromise,Male,32,1
2,21,45,0.25,0,1.8,0.244444444,"9,9,9,9,9","1,4,0,2,4","8,5,9,7,5",35,3.2638,30,3.2762,20,3,0.3333333333333333,compromise,Male,32,1
2,22,5,0.375,0,1.8,0.4,"1,1,1,1,1","1,1,0,0,0","0,0,1,1,1",40,2.1646,35,2.8642,25,1,0.3333333333333333,compromise,Male,32,1
2,23,5,0.875,0,1.7,0.8,"1,1,1,1,1","1,1,1,0,1","0,0,0,1,0",80,2.8341,85,3.6056,98,3,0.2777777777777778,compromise,Male,32,1
2,24,5,0.875,0,1.6,0.8,"1,1,1,1,1","1,1,1,0,1","0,0,0,1,0",80,2.3146,90,4.2584,97,1,0.5882352941176471,compromise,Male,32,1
2,25,5,0.75,0,1.8,0.8,"1,1,1,1,1","0,1,1,1,1","1,0,0,0,0",80,1.6473,72,4.8456,65,3,0.5333333333333333,compromise,Male,32,1
2,27,5,0.25,0,1.8,0.2,"1,1,1,1,1","0,0,0,0,1","1,1,1,1,0",20,1.718,25,4.0727,36,1,0.3125,compromise,Male,32,1
2,28,45,0.5,0,2,0.511111111,"9,9,9,9,9","2,5,5,7,4","7,4,4,2,5",56,5.4788,45,3.8634,40,3,0.6875,compromise,Male,32,1
2,29,5,0.625,0,1.5,0.6,"1,1,1,1,1","1,1,0,0,1","0,0,1,1,0",60,4.1937,70,4.7585,75,3,0.6666666666666666,compromise,Male,32,1
2,30,45,0.125,0,1.9,0.133333333,"9,9,9,9,9","1,2,1,1,1","8,7,8,8,8",20,2.3475,15,3.6753,3,2,0.29411764705882354,compromise,Male,32,1
2,31,45,0.75,0,1.7,0.755555556,"9,9,9,9,9","7,6,7,7,7","2,3,2,2,2",75,2.2313,70,6.5737,57,2,0.2777777777777778,compromise,Male,32,1
2,32,45,0.125,0,1.6,0.133333333,"9,9,9,9,9","4,1,0,0,1","5,8,9,9,8",15,1.8983,15,4.4788,0,1,-0,stay,Male,32,1
2,33,45,0.75,0,1.9,0.755555556,"9,9,9,9,9","8,8,5,8,5","1,1,4,1,4",70,4.7291,75,5.041,86,3,0.3125,compromise,Male,32,1
2,34,45,0.625,0,2,0.622222222,"9,9,9,9,9","7,3,7,6,5","2,6,2,3,4",65,3.1636,60,3.3302,47,1,0.2777777777777778,compromise,Male,32,1
2,35,45,0.625,0,1.8,0.622222222,"9,9,9,9,9","6,4,4,8,6","3,5,5,1,3",70,3.0307,62,4.9618,55,2,0.5333333333333333,compromise,Male,32,1
2,36,5,0.5,0,1.9,0.6,"1,1,1,1,1","0,1,1,0,1","1,0,0,1,0",60,1.5331,50,4.0562,42,3,0.5555555555555556,compromise,Male,32,1
2,37,45,0.25,0,2,0.244444444,"9,9,9,9,9","1,4,2,1,3","8,5,7,8,6",30,3.6176,30,4.8546,13,1,-0,stay,Male,32,1
2,38,5,0.5,0,1.7,0.6,"1,1,1,1,1","0,1,0,1,1","1,0,1,0,0",60,3.7466,60,2.8427,44,1,-0,stay,Male,32,1
2,39,5,0.125,0,1.9,0.2,"1,1,1,1,1","0,0,0,0,1","1,1,1,1,0",20,2.3812,15,2.9257,5,1,0.3333333333333333,compromise,Male,32,1
2,41,5,0.25,0,1.9,0.2,"1,1,1,1,1","0,0,0,0,1","1,1,1,1,0",20,1.1323,30,5.2121,38,3,0.5555555555555556,compromise,Male,32,1
2,43,45,0.5,0,1.7,0.511111111,"9,9,9,9,9","4,5,4,5,5","5,4,5,4,4",45,1.432,52,5.878,63,1,0.3888888888888889,compromise,Male,32,1
2,44,45,0.125,0,1.9,0.133333333,"9,9,9,9,9","3,0,2,1,0","6,9,7,8,9",10,2.7143,17,5.9076,27,3,0.4117647058823529,compromise,Male,32,1
2,45,5,0.25,0,1.5,0.2,"1,1,1,1,1","0,0,0,1,0","1,1,1,0,1",20,1.1188,25,3.4065,35,2,0.3333333333333333,compromise,Male,32,1
2,47,5,0.75,0,1.8,0.8,"1,1,1,1,1","1,1,1,1,0","0,0,0,0,1",80,1.2157,72,6.373,63,2,0.47058823529411764,compromise,Male,32,1
2,49,45,0.75,0,1.6,0.755555556,"9,9,9,9,9","6,8,8,6,6","3,1,1,3,3",82,2.581,78,8.4047,66,1,0.25,compromise,Male,32,1
2,50,45,0.375,0,1.7,0.377777778,"9,9,9,9,9","2,2,6,4,3","7,7,3,5,6",48,3.7301,35,8.6036,30,3,0.7222222222222222,compromise,Male,32,1
2,51,45,0.625,0,1.5,0.622222222,"9,9,9,9,9","7,8,7,4,2","2,1,2,5,7",42,2.6639,60,9.1086,60,3,1,copy,Male,32,1
2,53,5,0.125,0,1.7,0.2,"1,1,1,1,1","1,0,0,0,0","0,1,1,1,1",20,1.5654,10,3.5261,5,3,0.6666666666666666,compromise,Male,32,1
3,1,5,0.125,0,2,0.2,"1,1,1,1,1","0,1,0,0,0","1,0,1,1,1",10,6.0616,15,6.5562,25,2,0.3333333333333333,compromise,Female,36,1
3,2,5,0.375,0,2,0.4,"1,1,1,1,1","0,0,1,0,1","1,1,0,1,0",40,4.048,40,6.2401,25,2,-0,stay,Female,36,1
3,3,5,0.875,0,1.6,0.8,"1,1,1,1,1","1,1,1,1,0","0,0,0,0,1",80,2.1651,80,4.1423,97,3,0,stay,Female,36,1
3,4,5,0.75,0,1.9,0.8,"1,1,1,1,1","1,1,0,1,1","0,0,1,0,0",80,2.8822,80,3.161,65,3,-0,stay,Female,36,1
3,5,5,0.125,0,2,0.2,"1,1,1,1,1","0,0,0,0,1","1,1,1,1,0",10,2.5151,10,2.9256,28,3,0,stay,Female,36,1
3,6,45,0.875,0,1.9,0.866666667,"9,9,9,9,9","8,6,8,8,9","1,3,1,1,0",85,6.8335,90,5.6872,100,2,0.3333333333333333,compromise,Female,36,1
3,7,45,0.375,0,1.8,0.377777778,"9,9,9,9,9","3,4,3,5,2","6,5,6,4,7",60,5.7681,60,5.454,45,1,-0,stay,Female,36,1
3,8,5,0.25,0,2,0.2,"1,1,1,1,1","0,0,1,0,0","1,1,0,1,1",20,5.6679,20,2.5537,37,3,0,stay,Female,36,1
3,9,45,0.875,0,1.9,0.866666667,"9,9,9,9,9","7,9,8,8,7","2,0,1,1,2",90,4.4866,85,3.3203,73,1,0.29411764705882354,compromise,Female,36,1
3,12,5,0.5,0,1.5,0.6,"1,1,1,1,1","0,1,1,1,0","1,0,0,0,1",60,3.4309,60,2.6096,42,3,-0,stay,Female,36,1
3,13,45,0.625,0,1.7,0.622222222,"9,9,9,9,9","5,4,8,5,6","4,5,1,4,3",68,7.3839,65,3.1389,51,1,0.17647058823529413,compromise,Female,36,1
3,15,45,0.5,0,1.8,0.511111111,"9,9,9,9,9","6,7,3,2,5","3,2,6,7,4",60,8.2242,60,4.408,42,2,-0,stay,Female,36,1
3,16,45,0.375,0,1.7,0.377777778,"9,9,9,9,9","4,2,3,2,6","5,7,6,7,3",40,5.1964,40,3.7263,22,2,-0,stay,Female,36,1
3,17,5,0.25,0,1.6,0.2,"1,1,1,1,1","0,0,1,0,0","1,1,0,1,1",10,5.9848,20,5.3546,27,1,0.5882352941176471,compromise,Female,36,1
3,19,45,0.5,0,1.9,0.511111111,"9,9,9,9,9","5,4,5,5,4","4,5,4,4,5",60,6.5009,55,4.1392,44,1,0.3125,compromise,Female,36,1
3,20,5,0.75,0,1.6,0.8,"1,1,1,1,1","1,1,0,1,1","0,0,1,0,0",80,5.13,80,2.9307,65,2,-0,stay,Female,36,1
3,23,45,0.25,0,1.6,0.244444444,"9,9,9,9,9","4,2,2,2,1","5,7,7,7,8",22,7.1507,22,3.5937,37,2,0,stay,Female,36,1
3,26,45,0.625,0,1.8,0.622222222,"9,9,9,9,9","4,5,6,8,5","5,4,3,1,4",48,8.0837,56,5.027,66,3,0.4444444444444444,compromise,Female,36,1
3,27,45,0.75,0,1.6,0.755555556,"9,9,9,9,9","8,8,6,6,6","1,1,3,3,3",67,6.851,73,3.505,83,2,0.375,compromise,Female,36,1
3,28,5,0.375,0,1.9,0.4,"1,1,1,1,1","0,0,1,1,0","1,1,0,0,1",20,2.1652,20,2.6251,37,3,0,stay,Female,36,1
3,29,5,0.5,0,1.5,0.6,"1,1,1,1,1","1,0,0,1,1","0,1,1,0,0",60,2.4493,60,2.1948,42,2,-0,stay,Female,36,1
3,30,5,0.125,0,1.5,0.2,"1,1,1,1,1","0,0,0,1,0","1,1,1,0,1",20,3.0034,20,5.3478,2,1,-0,stay,Female,36,1
3,31,45,0.375,0,1.5,0.377777778,"9,9,9,9,9","2,3,2,6,4","7,6,7,3,5",34,5.0851,34,2.0092,50,3,0,stay,Female,36,1
3,33,5,0.75,0,1.5,0.8,"1,1,1,1,1","0,1,1,1,1","1,0,0,0,0",80,2.8522,80,7.6368,62,1,-0,stay,Female,36,1
3,34,5,0.625,0,2,0.6,"1,1,1,1,1","1,0,1,1,0","0,1,0,0,1",80,5.2801,80,1.9605,62,2,-0,stay,Female,36,1
3,37,45,0.25,0,1.8,0.244444444,"9,9,9,9,9","3,1,1,0,6","6,8,8,9,3",22,5.0807,22,4.8464,37,1,0,stay,Female,36,1
3,38,5,0.625,0,2,0.6,"1,1,1,1,1","1,1,1,0,0","0,0,0,1,1",60,3.3609,60,3.1649,78,3,0,stay,Female,36,1
3,39,45,0.125,0,1.7,0.133333333,"9,9,9,9,9","1,1,1,0,3","8,8,8,9,6",36,8.8739,36,2.3773,20,1,-0,stay,Female,36,1
3,42,45,0.25,0,1.9,0.244444444,"9,9,9,9,9","1,2,3,4,1","8,7,6,5,8",33,5.3471,30,5.1472,15,3,0.16666666666666666,compromise,Female,36,1
3,44,5,0.5,0,1.9,0.6,"1,1,1,1,1","1,0,1,0,1","0,1,0,1,0",60,3.9355,60,1.8947,44,1,-0,stay,Female,36,1
3,45,45,0.75,0,1.9,0.755555556,"9,9,9,9,9","8,6,6,7,7","1,3,3,2,2",75,5.7178,70,4.594,60,3,0.3333333333333333,compromise,Female,36,1
3,47,45,0.125,0,1.7,0.133333333,"9,9,9,9,9","1,1,0,1,3","8,8,9,8,6",20,8.0125,15,6.295,2,2,0.2777777777777778,compromise,Female,36,1
3,48,5,0.875,0,1.6,0.8,"1,1,1,1,1","1,0,1,1,1","0,1,0,0,0",80,4.1435,80,2.4483,97,2,0,stay,Female,36,1
3,49,45,0.625,0,1.6,0.622222222,"9,9,9,9,9","8,5,6,4,5","1,4,3,5,4",56,6.1135,60,2.8979,73,2,0.23529411764705882,compromise,Female,36,1
3,50,5,0.875,0,1.6,0.8,"1,1,1,1,1","1,1,1,0,1","0,0,0,1,0",80,1.4158,80,2.1985,97,1,0,stay,Female,36,1
3,52,45,0.875,0,1.5,0.866666667,"9,9,9,9,9","7,8,7,8,9","2,1,2,1,0",85,7.7495,85,2.6726,100,3,0,stay,Female,36,1
3,53,5,0.625,0,1.6,0.6,"1,1,1,1,1","0,0,1,1,1","1,1,0,0,0",60,3.2864,60,2.5106,75,1,0,stay,Female,36,1
3,54,45,0.75,0,1.8,0.755555556,"9,9,9,9,9","8,5,6,8,7","1,4,3,1,2",90,2.2319,85,5.0468,72,1,0.2777777777777778,compromise,Female,36,1
5,2,45,0.125,0,1.5,0.133333333,"9,9,9,9,9","2,1,1,1,1","7,8,8,8,8",18,3.9526,15,4.4605,0,2,0.16666666666666666,compromise,Male,24,1
5,3,5,0.125,0,1.9,0.2,"1,1,1,1,1","0,0,0,1,0","1,1,1,0,1",20,3.7489,15,2.4157,2,1,0.2777777777777778,compromise,Male,24,1
5,4,45,0.875,0,1.7,0.866666667,"9,9,9,9,9","8,6,8,8,9","1,3,1,1,0",90,3.0497,85,4.3605,74,1,0.3125,compromise,Male,24,1
5,5,45,0.625,0,1.8,0.622222222,"9,9,9,9,9","7,5,8,3,5","2,4,1,6,4",70,2.2681,65,3.8939,55,3,0.3333333333333333,compromise,Male,24,1
5,6,45,0.375,0,1.7,0.377777778,"9,9,9,9,9","3,1,4,4,5","6,8,5,5,4",25,2.183,30,2.8121,40,1,0.3333333333333333,compromise,Male,24,1
5,7,45,0.25,0,1.7,0.244444444,"9,9,9,9,9","2,1,1,2,5","7,8,8,7,4",15,1.433,18,2.0263,32,1,0.17647058823529413,compromise,Male,24,1
5,9,45,0.375,0,1.9,0.377777778,"9,9,9,9,9","5,1,0,5,6","4,8,9,4,3",18,3.249,25,2.863,33,2,0.4666666666666667,compromise,Male,24,1
5,10,5,0.25,0,1.9,0.2,"1,1,1,1,1","0,0,0,1,0","1,1,1,0,1",20,3.6827,20,2.3794,35,3,0,stay,Male,24,1
5,11,45,0.75,0,1.8,0.755555556,"9,9,9,9,9","6,8,6,8,6","3,1,3,1,3",80,3.3995,75,2.2293,65,3,0.3333333333333333,compromise,Male,24,1
5,13,5,0.875,0,1.9,0.8,"1,1,1,1,1","0,1,1,1,1","1,0,0,0,0",100,1.5659,95,4.1285,82,1,0.2777777777777778,compromise,Male,24,1
5,14,45,0.125,0,1.9,0.133333333,"9,9,9,9,9","0,0,1,2,3","9,9,8,7,6",15,5.6991,15,3.5628,0,3,-0,stay,Male,24,1
5,16,45,0.5,0,1.7,0.511111111,"9,9,9,9,9","5,4,6,4,4","4,5,3,5,5",55,2.333,50,1.6962,40,1,0.3333333333333333,compromise,Male,24,1
5,17,45,0.125,0,1.5,0.133333333,"9,9,9,9,9","1,1,0,3,1","8,8,9,6,8",18,6.0158,12,1.8452,2,1,0.375,compromise,Male,24,1
5,18,5,0.375,0,1.7,0.4,"1,1,1,1,1","0,0,1,1,0","1,1,0,0,1",45,2.3852,40,2.2609,30,2,0.3333333333333333,compromise,Male,24,1
5,19,45,0.5,0,1.5,0.511111111,"9,9,9,9,9","6,5,3,4,5","3,4,6,5,4",45,3.1163,50,2.1121,60,2,0.3333333333333333,compromise,Male,24,1
5,20,5,0.875,0,1.7,0.8,"1,1,1,1,1","0,1,1,1,1","1,0,0,0,0",75,1.7994,80,2.3299,90,2,0.3333333333333333,compromise,Male,24,1
5,21,5,0.125,0,1.7,0.2,"1,1,1,1,1","0,0,0,1,0","1,1,1,0,1",15,1.6686,15,2.8446,0,3,-0,stay,Male,24,1
5,22,45,0.75,0,2,0.755555556,"9,9,9,9,9","6,8,7,7,6","3,1,2,2,3",78,2.1322,75,1.8629,60,1,0.16666666666666666,compromise,Male,24,1
5,23,5,0.75,0,1.7,0.8,"1,1,1,1,1","1,1,0,1,1","0,0,1,0,0",75,2.1162,85,3.1817,92,1,0.5882352941176471,compromise,Male,24,1
5,24,5,0.875,0,2,0.8,"1,1,1,1,1","1,1,0,1,1","0,0,1,0,0",85,1.5155,85,2.5629,100,3,0,stay,Male,24,1
5,25,5,0.5,0,1.8,0.6,"1,1,1,1,1","0,1,0,1,1","1,0,1,0,0",65,3.3823,65,1.715,50,1,-0,stay,Male,24,1
5,27,5,0.25,0,1.9,0.2,"1,1,1,1,1","0,0,0,1,0","1,1,1,0,1",15,0.835,20,1.5608,30,2,0.3333333333333333,compromise,Male,24,1
5,28,45,0.25,0,1.6,0.244444444,"9,9,9,9,9","2,1,2,4,2","7,8,7,5,7",22,2.8828,24,2.0795,40,3,0.1111111111111111,compromise,Male,24,1
5,29,5,0.625,0,1.5,0.6,"1,1,1,1,1","0,0,1,1,1","1,1,0,0,0",60,2.2161,65,2.1626,75,1,0.3333333333333333,compromise,Male,24,1
5,30,5,0.75,0,1.7,0.8,"1,1,1,1,1","1,1,1,0,1","0,0,0,1,0",85,2.6501,75,4.5107,69,3,0.625,compromise,Male,24,1
5,31,5,0.625,0,1.8,0.6,"1,1,1,1,1","0,1,1,0,1","1,0,0,1,0",60,1.9162,65,5.0619,76,2,0.3125,compromise,Male,24,1
5,32,45,0.5,0,1.9,0.511111111,"9,9,9,9,9","5,5,7,4,2","4,4,2,5,7",70,2.2155,65,3.7176,55,3,0.3333333333333333,compromise,Male,24,1
5,36,5,0.5,0,2,0.6,"1,1,1,1,1","1,1,0,0,1","0,0,1,1,0",55,1.2497,50,2.8963,40,3,0.3333333333333333,compromise,Male,24,1
5,37,45,0.25,0,1.6,0.244444444,"9,9,9,9,9","1,5,2,0,3","8,4,7,9,6",25,5.9661,30,1.4457,41,2,0.3125,compromise,Male,24,1
5,38,5,0.625,0,1.5,0.6,"1,1,1,1,1","1,1,0,1,0","0,0,1,0,1",60,1.866,70,3.0291,75,3,0.6666666666666666,compromise,Male,24,1
5,39,45,0.875,0,1.5,0.866666667,"9,9,9,9,9","8,6,8,8,9","1,3,1,1,0",80,0.7162,95,2.1959,97,2,0.8823529411764706,compromise,Male,24,1
5,40,5,0.5,0,1.6,0.6,"1,1,1,1,1","1,0,0,1,1","0,1,1,0,0",60,0.7331,50,1.4632,45,2,0.6666666666666666,compromise,Male,24,1
5,42,5,0.75,0,1.7,0.8,"1,1,1,1,1","1,1,1,0,1","0,0,0,1,0",80,1.0661,75,1.9297,65,2,0.3333333333333333,compromise,Male,24,1
5,43,5,0.375,0,1.8,0.4,"1,1,1,1,1","1,0,0,1,0","0,1,1,0,1",40,1.2162,30,1.8627,24,3,0.625,compromise,Male,24,1
5,44,5,0.25,0,2,0.2,"1,1,1,1,1","0,0,0,1,0","1,1,1,0,1",40,2.7493,35,3.3792,25,1,0.3333333333333333,compromise,Male,24,1
5,45,45,0.625,0,1.7,0.622222222,"9,9,9,9,9","5,4,5,8,6","4,5,4,1,3",75,0.9014,65,2.0619,58,2,0.5882352941176471,compromise,Male,24,1
5,46,45,0.375,0,1.7,0.377777778,"9,9,9,9,9","3,2,4,3,5","6,7,5,6,4",25,6.8989,40,1.6129,40,3,1,copy,Male,24,1
5,47,45,0.875,0,2,0.866666667,"9,9,9,9,9","8,8,8,7,8","1,1,1,2,1",91,3.215,82,4.196,74,3,0.5294117647058824,compromise,Male,24,1
5,51,5,0.125,0,1.5,0.2,"1,1,1,1,1","1,0,0,0,0","0,1,1,1,1",20,0.8161,15,2.4797,4,2,0.3125,compromise,Male,24,1
5,52,5,0.375,0,1.5,0.4,"1,1,1,1,1","1,0,0,0,1","0,1,1,1,0",20,1.0327,22,3.2824,38,1,0.1111111111111111,compromise,Male,24,1
5,53,45,0.625,0,1.5,0.622222222,"9,9,9,9,9","6,4,4,5,9","3,5,5,4,0",60,6.499,65,4.3959,77,1,0.29411764705882354,compromise,Male,24,1
5,54,45,0.75,0,1.8,0.755555556,"9,9,9,9,9","7,6,4,9,8","2,3,5,0,1",60,6.4323,70,1.3992,75,2,0.6666666666666666,compromise,Male,24,1
6,1,5,0.625,0,1.5,0.6,"1,1,1,1,1","1,1,0,0,1","0,0,1,1,0",60,2.6959,60,2.2874,76,2,0,stay,Male,20,1
6,2,45,0.125,0,1.8,0.133333333,"9,9,9,9,9","0,2,2,1,1","9,7,7,8,8",15,2.6898,12,4.2486,0,2,0.2,compromise,Male,20,1
6,3,5,0.625,0,1.5,0.6,"1,1,1,1,1","0,1,1,1,0","1,0,0,0,1",60,1.8431,65,7.3118,75,3,0.3333333333333333,compromise,Male,20,1
6,5,5,0.625,0,1.9,0.6,"1,1,1,1,1","1,0,0,1,1","0,1,1,0,0",60,1.5915,60,3.6772,75,1,0,stay,Male,20,1
6,6,5,0.125,0,1.6,0.2,"1,1,1,1,1","0,0,0,0,1","1,1,1,1,0",20,3.3237,15,4.3578,5,2,0.3333333333333333,compromise,Male,20,1
6,9,45,0.5,0,1.5,0.511111111,"9,9,9,9,9","4,3,7,4,5","5,6,2,5,4",58,3.6981,55,2.3301,40,2,0.16666666666666666,compromise,Male,20,1
6,10,45,0.125,0,1.9,0.133333333,"9,9,9,9,9","2,1,2,0,1","7,8,7,9,8",10,2.238,15,5.7911,27,3,0.29411764705882354,compromise,Male,20,1
6,11,45,0.125,0,2,0.133333333,"9,9,9,9,9","2,3,1,0,0","7,6,8,9,9",10,2.5723,10,1.8486,28,1,0,stay,Male,20,1
6,12,45,0.625,0,1.5,0.622222222,"9,9,9,9,9","6,3,6,8,5","3,6,3,1,4",75,1.9182,75,2.329,60,1,-0,stay,Male,20,1
6,13,45,0.25,0,1.9,0.244444444,"9,9,9,9,9","2,2,4,2,1","7,7,5,7,8",27,3.1143,25,5.3942,9,2,0.1111111111111111,compromise,Male,20,1
6,14,45,0.25,0,1.6,0.244444444,"9,9,9,9,9","3,1,0,3,4","6,8,9,6,5",30,3.7816,25,2.766,15,1,0.3333333333333333,compromise,Male,20,1
6,15,5,0.5,0,1.8,0.6,"1,1,1,1,1","1,0,1,0,1","0,1,0,1,0",60,1.1608,60,3.3999,44,1,-0,stay,Male,20,1
6,16,45,0.5,0,1.8,0.511111111,"9,9,9,9,9","5,4,5,5,4","4,5,4,4,5",55,1.6889,55,2.9893,38,1,-0,stay,Male,20,1
6,17,45,0.25,0,1.6,0.244444444,"9,9,9,9,9","4,0,1,4,2","5,9,8,5,7",20,2.6276,25,1.8907,35,3,0.3333333333333333,compromise,Male,20,1
6,18,5,0.75,0,1.5,0.8,"1,1,1,1,1","1,1,0,1,1","0,0,1,0,0",80,2.0297,70,5.8534,65,2,0.6666666666666666,compromise,Male,20,1
6,19,5,0.375,0,1.5,0.4,"1,1,1,1,1","1,1,0,0,0","0,0,1,1,1",40,1.6541,40,4.6852,24,1,-0,stay,Male,20,1
6,20,5,0.125,0,1.8,0.2,"1,1,1,1,1","0,0,1,0,0","1,1,0,1,1",20,1.6962,10,4.3098,5,3,0.6666666666666666,compromise,Male,20,1
6,21,5,0.875,0,2,0.8,"1,1,1,1,1","1,1,1,1,0","0,0,0,0,1",80,1.2718,89,4.7828,95,2,0.6,compromise,Male,20,1
6,23,45,0.625,0,1.5,0.622222222,"9,9,9,9,9","3,6,6,7,6","6,3,3,2,3",70,2.0713,65,2.5448,53,3,0.29411764705882354,compromise,Male,20,1
6,24,45,0.375,0,1.9,0.377777778,"9,9,9,9,9","4,3,3,3,4","5,6,6,6,5",35,1.6545,35,2.1559,53,3,0,stay,Male,20,1
6,26,45,0.875,0,1.9,0.866666667,"9,9,9,9,9","7,9,7,8,8","2,0,2,1,1",90,0.6321,90,1.2939,74,1,-0,stay,Male,20,1
6,27,45,0.875,0,1.7,0.866666667,"9,9,9,9,9","9,7,9,7,7","0,2,0,2,2",92,1.266,90,2.1404,75,2,0.11764705882352941,compromise,Male,20,1
6,28,45,0.875,0,1.8,0.866666667,"9,9,9,9,9","8,6,9,8,8","1,3,0,1,1",85,2.683,90,3.9,100,3,0.3333333333333333,compromise,Male,20,1
6,30,5,0.5,0,1.7,0.6,"1,1,1,1,1","0,1,0,1,1","1,0,1,0,0",60,1.1549,50,2.823,45,2,0.6666666666666666,compromise,Male,20,1
6,31,45,0.375,0,1.5,0.377777778,"9,9,9,9,9","4,3,5,2,3","5,6,4,7,6",38,2.0581,40,3.0249,54,2,0.125,compromise,Male,20,1
6,32,5,0.5,0,1.5,0.6,"1,1,1,1,1","1,1,0,0,1","0,0,1,1,0",60,1.0149,50,2.6635,44,3,0.625,compromise,Male,20,1
6,33,45,0.75,0,1.6,0.755555556,"9,9,9,9,9","8,5,7,6,8","1,4,2,3,1",90,2.0295,85,4.1988,73,3,0.29411764705882354,compromise,Male,20,1
6,34,5,0.375,0,1.7,0.4,"1,1,1,1,1","1,0,1,0,0","0,1,0,1,1",40,1.4818,35,4.0657,25,2,0.3333333333333333,compromise,Male,20,1
6,35,45,0.625,0,1.5,0.622222222,"9,9,9,9,9","5,6,4,7,6","4,3,5,2,3",65,1.8696,60,6.048,49,2,0.3125,compromise,Male,20,1
6,36,5,0.75,0,2,0.8,"1,1,1,1,1","1,1,1,1,0","0,0,0,0,1",80,2.3774,80,1.8426,63,1,-0,stay,Male,20,1
6,37,5,0.25,0,2,0.2,"1,1,1,1,1","0,0,0,1,0","1,1,1,0,1",20,3.0795,25,3.1559,35,2,0.3333333333333333,compromise,Male,20,1
6,38,45,0.375,0,1.8,0.377777778,"9,9,9,9,9","5,3,5,3,1","4,6,4,6,8",40,1.2235,40,1.9538,22,1,-0,stay,Male,20,1
6,39,5,0.25,0,1.8,0.2,"1,1,1,1,1","0,0,1,0,0","1,1,0,1,1",20,1.8349,20,1.5855,35,1,0,stay,Male,20,1
6,40,45,0.5,0,1.6,0.511111111,"9,9,9,9,9","5,5,5,3,5","4,4,4,6,4",51,1.1478,49,2.2315,33,3,0.1111111111111111,compromise,Male,20,1
6,41,45,0.75,0,1.7,0.755555556,"9,9,9,9,9","6,6,8,7,7","3,3,1,2,2",85,1.2373,85,1.7804,70,2,-0,stay,Male,20,1
6,45,5,0.875,0,1.7,0.8,"1,1,1,1,1","1,1,1,1,0","0,0,0,0,1",80,1.2304,90,1.7091,96,3,0.625,compromise,Male,20,1
6,46,5,0.875,0,1.6,0.8,"1,1,1,1,1","1,1,1,1,0","0,0,0,0,1",80,0.5214,80,2.8852,97,1,0,stay,Male,20,1
6,47,5,0.25,0,1.7,0.2,"1,1,1,1,1","1,0,0,0,0","0,1,1,1,1",20,0.9454,30,3.8028,35,3,0.6666666666666666,compromise,Male,20,1
6,49,5,0.375,0,1.8,0.4,"1,1,1,1,1","1,0,0,1,0","0,1,1,0,1",40,1.321,30,3.2125,23,3,0.5882352941176471,compromise,Male,20,1
6,50,5,0.75,0,1.9,0.8,"1,1,1,1,1","0,1,1,1,1","1,0,0,0,0",80,1.0564,75,9.2815,65,3,0.3333333333333333,compromise,Male,20,1
6,51,5,0.125,0,1.8,0.2,"1,1,1,1,1","0,0,0,0,1","1,1,1,1,0",20,1.0701,20,2.1065,5,1,-0,stay,Male,20,1
6,53,45,0.75,0,2,0.755555556,"9,9,9,9,9","6,7,8,6,7","3,2,1,3,2",87,1.0358,85,2.0854,71,1,0.125,compromise,Male,20,1
7,1,5,0.75,0,1.7,0.8,"1,1,1,1,1","1,1,0,1,1","0,0,1,0,0",50,4.3,60,4.363,65,3,0.6666666666666666,compromise,Male,30,1
7,3,45,0.875,0,1.7,0.866666667,"9,9,9,9,9","8,7,6,9,9","1,2,3,0,0",70,5.866,70,3.18,86,1,0,stay,Male,30,1
7,6,45,0.25,0,1.6,0.244444444,"9,9,9,9,9","3,2,3,3,0","6,7,6,6,9",40,5.367,30,2.346,25,2,0.6666666666666666,compromise,Male,30,1
7,7,45,0.625,0,1.7,0.622222222,"9,9,9,9,9","6,6,7,5,4","3,3,2,4,5",70,3.317,65,5.148,55,1,0.3333333333333333,compromise,Male,30,1
7,9,5,0.25,0,1.5,0.2,"1,1,1,1,1","0,1,0,0,0","1,0,1,1,1",25,2.932,25,3.063,43,2,0,stay,Male,30,1
7,10,5,0.375,0,1.8,0.4,"1,1,1,1,1","1,1,0,0,0","0,0,1,1,1",10,2.483,10,1.88,25,3,0,stay,Male,30,1
7,11,45,0.375,0,1.9,0.377777778,"9,9,9,9,9","4,1,4,2,6","5,8,5,7,3",65,2.583,55,2.697,49,2,0.625,compromise,Male,30,1
7,12,45,0.75,0,1.7,0.755555556,"9,9,9,9,9","5,8,6,7,8","4,1,3,2,1",70,2.083,75,2.664,88,2,0.2777777777777778,compromise,Male,30,1
7,13,45,0.5,0,1.7,0.511111111,"9,9,9,9,9","5,1,6,5,6","4,8,3,4,3",75,2.9,65,3.096,59,3,0.625,compromise,Male,30,1
7,14,5,0.125,0,1.6,0.2,"1,1,1,1,1","1,0,0,0,0","0,1,1,1,1",10,2.283,25,2.896,28,1,0.8333333333333334,compromise,Male,30,1
7,17,45,0.125,0,1.7,0.133333333,"9,9,9,9,9","1,1,2,1,1","8,8,7,8,8",30,3.599,15,3.18,12,2,0.8333333333333334,compromise,Male,30,1
7,18,5,0.375,0,1.9,0.4,"1,1,1,1,1","1,0,0,1,0","0,1,1,0,1",70,4.741,60,2.952,53,1,0.5882352941176471,compromise,Male,30,1
7,19,5,0.25,0,1.5,0.2,"1,1,1,1,1","0,0,1,0,0","1,1,0,1,1",20,4.966,20,2.596,35,3,0,stay,Male,30,1
7,20,5,0.5,0,1.9,0.6,"1,1,1,1,1","1,1,0,0,1","0,0,1,1,0",70,5.699,65,2.61,52,2,0.2777777777777778,compromise,Male,30,1
7,21,45,0.625,0,2,0.622222222,"9,9,9,9,9","6,7,4,6,5","3,2,5,3,4",75,2.033,70,2.446,60,2,0.3333333333333333,compromise,Male,30,1
7,22,5,0.125,0,1.5,0.2,"1,1,1,1,1","0,0,1,0,0","1,1,0,1,1",20,1.349,10,6.411,4,2,0.625,compromise,Male,30,1
7,23,45,0.625,0,1.5,0.622222222,"9,9,9,9,9","5,7,5,5,6","4,2,4,4,3",80,9.867,75,2.913,62,3,0.2777777777777778,compromise,Male,30,1
7,24,5,0.375,0,1.6,0.4,"1,1,1,1,1","0,1,1,0,0","1,0,0,1,1",10,3.167,10,2.196,26,2,0,stay,Male,30,1
7,26,5,0.5,0,1.7,0.6,"1,1,1,1,1","0,1,0,1,1","1,0,1,0,0",65,2.65,55,2.413,50,1,0.6666666666666666,compromise,Male,30,1
7,27,45,0.5,0,1.7,0.511111111,"9,9,9,9,9","3,5,6,6,3","6,4,3,3,6",65,1.516,60,2.68,50,2,0.3333333333333333,compromise,Male,30,1
7,28,5,0.875,0,1.8,0.8,"1,1,1,1,1","1,0,1,1,1","0,1,0,0,0",70,1.316,70,2.53,87,1,0,stay,Male,30,1
7,29,5,0.625,0,1.8,0.6,"1,1,1,1,1","1,1,0,0,1","0,0,1,1,0",60,1.299,65,2.663,76,2,0.3125,compromise,Male,30,1
7,30,45,0.5,0,2,0.511111111,"9,9,9,9,9","7,6,4,4,2","2,3,5,5,7",65,2.118,60,2.646,50,1,0.3333333333333333,compromise,Male,30,1
7,31,45,0.75,0,1.7,0.755555556,"9,9,9,9,9","4,7,8,9,6","5,2,1,0,3",80,0.952,80,1.943,65,3,-0,stay,Male,30,1
7,32,45,0.25,0,1.5,0.244444444,"9,9,9,9,9","2,3,2,3,1","7,6,7,6,8",55,2.417,50,2.58,40,3,0.3333333333333333,compromise,Male,30,1
7,35,45,0.875,0,1.7,0.866666667,"9,9,9,9,9","8,7,8,9,7","1,2,1,0,2",89,1.683,86,3.296,74,3,0.2,compromise,Male,30,1
7,37,45,0.125,0,1.9,0.133333333,"9,9,9,9,9","1,1,0,1,3","8,8,9,8,6",30,4.315,20,2.963,14,1,0.625,compromise,Male,30,1
7,38,5,0.25,0,1.6,0.2,"1,1,1,1,1","1,0,0,0,0","0,1,1,1,1",20,3.916,20,2.53,37,1,0,stay,Male,30,1
7,39,45,0.75,0,2,0.755555556,"9,9,9,9,9","7,6,7,6,8","2,3,2,3,1",80,2.482,65,3.513,62,1,0.8333333333333334,compromise,Male,30,1
7,41,5,0.625,0,1.8,0.6,"1,1,1,1,1","1,0,1,1,0","0,1,0,0,1",45,3.767,55,2.78,60,1,0.6666666666666666,compromise,Male,30,1
7,43,45,0.25,0,1.5,0.244444444,"9,9,9,9,9","1,1,4,2,3","8,8,5,7,6",40,2.584,28,4.663,23,1,0.7058823529411765,compromise,Male,30,1
7,44,5,0.625,0,1.8,0.6,"1,1,1,1,1","0,0,1,1,1","1,1,0,0,0",60,2.25,60,2.997,75,3,0,stay,Male,30,1
7,46,5,0.75,0,1.9,0.8,"1,1,1,1,1","1,1,0,1,1","0,0,1,0,0",80,6.417,75,3.18,65,2,0.3333333333333333,compromise,Male,30,1
7,48,5,0.5,0,2,0.6,"1,1,1,1,1","0,1,1,1,0","1,0,0,0,1",70,2.149,65,2.229,55,3,0.3333333333333333,compromise,Male,30,1
7,49,45,0.125,0,1.8,0.133333333,"9,9,9,9,9","0,1,2,1,2","9,8,7,8,7",15,2,10,3.314,0,3,0.3333333333333333,compromise,Male,30,1
7,50,45,0.375,0,1.9,0.377777778,"9,9,9,9,9","5,3,5,1,3","4,6,4,8,6",70,1.867,65,2.68,55,3,0.3333333333333333,compromise,Male,30,1
7,51,45,0.375,0,2,0.377777778,"9,9,9,9,9","3,7,4,1,2","6,2,5,8,7",60,2.416,55,2.781,44,1,0.3125,compromise,Male,30,1
7,52,5,0.875,0,1.5,0.8,"1,1,1,1,1","1,1,1,1,0","0,0,0,0,1",90,1.4,80,2.147,72,3,0.5555555555555556,compromise,Male,30,1
9,1,45,0.625,0,1.7,0.622222222,"9,9,9,9,9","3,6,6,7,6","6,3,3,2,3",65,6.707,55,5.0057,50,3,0.6666666666666666,compromise,Male,22,1
9,4,5,0.5,0,1.7,0.6,"1,1,1,1,1","0,1,1,0,1","1,0,0,1,0",50,3.2446,60,7.169,66,1,0.625,compromise,Male,22,1
9,5,45,0.375,0,1.8,0.377777778,"9,9,9,9,9","2,2,6,4,3","7,7,3,5,6",40,5.0681,30,3.2318,23,2,0.5882352941176471,compromise,Male,22,1
9,6,5,0.75,0,1.5,0.8,"1,1,1,1,1","1,1,1,1,0","0,0,0,0,1",80,6.4932,70,4.4317,65,3,0.6666666666666666,compromise,Male,22,1
9,7,5,0.875,0,1.5,0.8,"1,1,1,1,1","1,1,1,1,0","0,0,0,0,1",70,7.3005,75,4.5489,86,1,0.3125,compromise,Male,22,1
9,8,45,0.875,0,1.8,0.866666667,"9,9,9,9,9","8,8,9,7,7","1,1,0,2,2",80,3.7341,85,4.4316,97,2,0.29411764705882354,compromise,Male,22,1
9,9,5,0.75,0,1.8,0.8,"1,1,1,1,1","1,0,1,1,1","0,1,0,0,0",70,5.7799,75,3.8048,85,2,0.3333333333333333,compromise,Male,22,1
9,11,45,0.25,0,1.6,0.244444444,"9,9,9,9,9","2,3,3,0,3","7,6,6,9,6",25,5.4413,20,4.1272,10,3,0.3333333333333333,compromise,Male,22,1
9,12,45,0.75,0,1.5,0.755555556,"9,9,9,9,9","8,6,7,6,7","1,3,2,3,2",75,5.1511,75,4.3172,93,2,0,stay,Male,22,1
9,13,45,0.25,0,1.5,0.244444444,"9,9,9,9,9","4,2,1,2,2","5,7,8,7,7",35,6.4716,30,2.5583,20,2,0.3333333333333333,compromise,Male,22,1
9,14,5,0.5,0,1.7,0.6,"1,1,1,1,1","1,1,0,1,0","0,0,1,0,1",70,6.2746,65,2.9224,52,2,0.2777777777777778,compromise,Male,22,1
9,17,45,0.75,0,1.7,0.755555556,"9,9,9,9,9","8,6,6,7,7","1,3,3,2,2",85,3.5823,80,2.7926,69,3,0.3125,compromise,Male,22,1
9,18,45,0.625,0,1.6,0.622222222,"9,9,9,9,9","6,6,5,5,6","3,3,4,4,3",70,6.0822,66,5.8853,52,2,0.2222222222222222,compromise,Male,22,1
9,19,5,0.625,0,2,0.6,"1,1,1,1,1","0,1,1,0,1","1,0,0,1,0",65,5.813,60,2.7596,50,1,0.3333333333333333,compromise,Male,22,1
9,20,45,0.375,0,1.9,0.377777778,"9,9,9,9,9","2,3,3,4,5","7,6,6,5,4",40,6.0031,35,3.943,24,1,0.3125,compromise,Male,22,1
9,21,45,0.125,0,2,0.133333333,"9,9,9,9,9","0,1,2,0,3","9,8,7,9,6",15,5.9159,10,5.2766,0,2,0.3333333333333333,compromise,Male,22,1
9,22,45,0.875,0,1.5,0.866666667,"9,9,9,9,9","7,7,8,8,9","2,2,1,1,0",90,2.5537,85,4.0594,75,3,0.3333333333333333,compromise,Male,22,1
9,23,45,0.25,0,1.5,0.244444444,"9,9,9,9,9","0,5,0,3,3","9,4,9,6,6",50,4.4765,50,3.858,35,1,-0,stay,Male,22,1
9,24,5,0.25,0,1.6,0.2,"1,1,1,1,1","0,1,0,0,0","1,0,1,1,1",15,4.3938,19,4.1608,30,2,0.26666666666666666,compromise,Male,22,1
9,26,5,0.625,0,1.6,0.6,"1,1,1,1,1","0,1,1,0,1","1,0,0,1,0",70,5.1032,65,2.8609,52,2,0.2777777777777778,compromise,Male,22,1
9,27,5,0.375,0,2,0.4,"1,1,1,1,1","0,0,1,1,0","1,1,0,0,1",30,2.8903,30,5.1386,48,3,0,stay,Male,22,1
9,29,5,0.5,0,2,0.6,"1,1,1,1,1","1,1,0,0,1","0,0,1,1,0",70,5.4098,70,3.0445,54,3,-0,stay,Male,22,1
9,31,45,0.5,0,1.9,0.511111111,"9,9,9,9,9","5,3,4,5,6","4,6,5,4,3",55,2.2138,48,6.4914,40,3,0.4666666666666667,compromise,Male,22,1
9,32,5,0.125,0,1.7,0.2,"1,1,1,1,1","0,0,0,0,1","1,1,1,1,0",20,5.4929,10,5.3946,5,3,0.6666666666666666,compromise,Male,22,1
9,33,5,0.875,0,2,0.8,"1,1,1,1,1","1,1,1,0,1","0,0,0,1,0",70,6.5383,80,4.4647,85,2,0.6666666666666666,compromise,Male,22,1
9,34,45,0.625,0,2,0.622222222,"9,9,9,9,9","5,7,4,6,6","4,2,5,3,3",60,4.885,65,4.3647,77,1,0.29411764705882354,compromise,Male,22,1
9,35,45,0.5,0,1.6,0.511111111,"9,9,9,9,9","4,3,8,4,4","5,6,1,5,5",40,4.1054,45,2.7263,56,1,0.3125,compromise,Male,22,1
9,37,5,0.25,0,1.8,0.2,"1,1,1,1,1","0,1,0,0,0","1,0,1,1,1",15,6.1342,20,2.5385,30,1,0.3333333333333333,compromise,Male,22,1
9,40,5,0.375,0,2,0.4,"1,1,1,1,1","0,0,0,1,1","1,1,1,0,0",40,3.5825,35,2.6579,25,1,0.3333333333333333,compromise,Male,22,1
9,41,5,0.125,0,1.7,0.2,"1,1,1,1,1","0,1,0,0,0","1,0,1,1,1",15,4.5945,10,3.7527,0,1,0.3333333333333333,compromise,Male,22,1
9,42,45,0.125,0,1.7,0.133333333,"9,9,9,9,9","3,0,1,1,1","6,9,8,8,8",10,5.0707,15,2.3335,26,3,0.3125,compromise,Male,22,1
9,43,45,0.75,0,1.5,0.755555556,"9,9,9,9,9","6,8,6,7,7","3,1,3,2,2",75,4.5635,70,2.438,60,1,0.3333333333333333,compromise,Male,22,1
9,45,45,0.875,0,2,0.866666667,"9,9,9,9,9","6,9,8,8,8","3,0,1,1,1",90,5.0364,80,6.2245,73,1,0.5882352941176471,compromise,Male,22,1
9,46,5,0.25,0,1.7,0.2,"1,1,1,1,1","0,1,0,0,0","1,0,1,1,1",15,4.6811,20,2.6085,31,3,0.3125,compromise,Male,22,1
9,47,45,0.5,0,2,0.511111111,"9,9,9,9,9","6,7,4,4,2","3,2,5,5,7",50,3.2947,50,4.8218,34,2,-0,stay,Male,22,1
9,48,45,0.375,0,1.9,0.377777778,"9,9,9,9,9","5,1,2,5,4","4,8,7,4,5",40,5.9825,40,3.1656,23,3,-0,stay,Male,22,1
9,49,5,0.125,0,1.9,0.2,"1,1,1,1,1","0,1,0,0,0","1,0,1,1,1",20,5.9477,15,3.2689,3,2,0.29411764705882354,compromise,Male,22,1
9,50,5,0.625,0,1.6,0.6,"1,1,1,1,1","1,0,0,1,1","0,1,1,0,0",60,7.658,65,3.1622,75,3,0.3333333333333333,compromise,Male,22,1
9,51,5,0.75,0,1.6,0.8,"1,1,1,1,1","1,0,1,1,1","0,1,0,0,0",75,5.7331,72,3.8694,60,1,0.2,compromise,Male,22,1
9,54,5,0.375,0,1.7,0.4,"1,1,1,1,1","1,0,0,0,1","0,1,1,1,0",30,3.8524,30,3.047,45,2,0,stay,Male,22,1
10,3,45,0.75,0,1.6,0.755555556,"9,9,9,9,9","6,7,8,5,8","3,2,1,4,1",70,5.9318,75,3.8127,86,3,0.3125,compromise,Male,36,1
10,5,5,0.5,0,1.8,0.6,"1,1,1,1,1","0,1,1,0,1","1,0,0,1,0",60,3.3664,60,4.1798,45,2,-0,stay,Male,36,1
10,7,45,0.25,0,2,0.244444444,"9,9,9,9,9","2,1,3,1,4","7,8,6,8,5",20,4.3654,25,3.6623,38,3,0.2777777777777778,compromise,Male,36,1
10,8,5,0.25,0,1.5,0.2,"1,1,1,1,1","1,0,0,0,0","0,1,1,1,1",25,4.7329,30,3.529,43,1,0.2777777777777778,compromise,Male,36,1
10,9,45,0.625,0,1.8,0.622222222,"9,9,9,9,9","7,8,5,3,5","2,1,4,6,4",65,2.9165,55,4.5959,50,3,0.6666666666666666,compromise,Male,36,1
10,10,45,0.375,0,1.5,0.377777778,"9,9,9,9,9","2,3,5,4,3","7,6,4,5,6",30,5.7994,35,2.6113,46,3,0.3125,compromise,Male,36,1
10,11,5,0.75,0,2,0.8,"1,1,1,1,1","1,1,1,0,1","0,0,0,1,0",80,3.5668,80,4.2794,65,2,-0,stay,Male,36,1
10,12,45,0.375,0,1.5,0.377777778,"9,9,9,9,9","4,2,2,4,5","5,7,7,5,4",35,3.967,35,3.0467,52,2,0,stay,Male,36,1
10,13,5,0.5,0,1.5,0.6,"1,1,1,1,1","0,1,0,1,1","1,0,1,0,0",60,2.75,50,5.6618,44,3,0.625,compromise,Male,36,1
10,14,5,0.25,0,1.9,0.2,"1,1,1,1,1","0,1,0,0,0","1,0,1,1,1",20,5.2492,25,4.1126,37,2,0.29411764705882354,compromise,Male,36,1
10,16,45,0.875,0,1.7,0.866666667,"9,9,9,9,9","9,6,7,8,9","0,3,2,1,0",90,2.2161,85,4.9294,73,3,0.29411764705882354,compromise,Male,36,1
10,17,45,0.75,0,1.6,0.755555556,"9,9,9,9,9","6,9,7,7,5","3,0,2,2,4",75,2.3986,75,7.8124,90,2,0,stay,Male,36,1
10,19,5,0.75,0,2,0.8,"1,1,1,1,1","1,1,1,1,0","0,0,0,0,1",80,3.1326,70,4.6291,62,3,0.5555555555555556,compromise,Male,36,1
10,21,5,0.625,0,1.9,0.6,"1,1,1,1,1","1,1,0,1,0","0,0,1,0,1",60,3.2674,65,3.6789,76,2,0.3125,compromise,Male,36,1
10,23,5,0.375,0,1.5,0.4,"1,1,1,1,1","1,0,0,0,1","0,1,1,1,0",40,3.1655,30,4.414,25,3,0.6666666666666666,compromise,Male,36,1
10,25,5,0.625,0,2,0.6,"1,1,1,1,1","1,1,0,0,1","0,0,1,1,0",60,2.649,72,3.6478,78,3,0.6666666666666666,compromise,Male,36,1
10,26,5,0.875,0,1.8,0.8,"1,1,1,1,1","0,1,1,1,1","1,0,0,0,0",80,3.1488,90,3.2636,95,3,0.6666666666666666,compromise,Male,36,1
10,28,5,0.75,0,2,0.8,"1,1,1,1,1","1,1,0,1,1","0,0,1,0,0",80,3.0484,80,4.0964,65,1,-0,stay,Male,36,1
10,29,45,0.25,0,1.7,0.244444444,"9,9,9,9,9","2,3,1,2,3","7,6,8,7,6",25,2.6,30,8.5622,40,2,0.3333333333333333,compromise,Male,36,1
10,30,45,0.25,0,1.8,0.244444444,"9,9,9,9,9","3,4,1,2,1","6,5,8,7,8",20,2.9002,20,2.9114,35,1,0,stay,Male,36,1
10,31,45,0.5,0,1.8,0.511111111,"9,9,9,9,9","4,5,5,3,6","5,4,4,6,3",50,2.3169,50,2.8947,68,1,0,stay,Male,36,1
10,33,45,0.625,0,1.7,0.622222222,"9,9,9,9,9","6,5,5,6,6","3,4,4,3,3",60,2.4667,60,2.7123,75,1,0,stay,Male,36,1
10,35,5,0.875,0,1.5,0.8,"1,1,1,1,1","1,1,1,0,1","0,0,0,1,0",80,2.1328,80,3.8283,95,2,0,stay,Male,36,1
10,37,45,0.625,0,1.9,0.622222222,"9,9,9,9,9","5,7,4,5,7","4,2,5,4,2",60,2.2825,62,5.2318,78,2,0.1111111111111111,compromise,Male,36,1
10,38,5,0.375,0,1.7,0.4,"1,1,1,1,1","0,0,1,0,1","1,1,0,1,0",40,1.899,35,2.4965,25,2,0.3333333333333333,compromise,Male,36,1
10,39,45,0.125,0,1.7,0.133333333,"9,9,9,9,9","2,2,0,0,2","7,7,9,9,7",15,2.1665,8,4.5943,0,2,0.4666666666666667,compromise,Male,36,1
10,40,45,0.125,0,2,0.133333333,"9,9,9,9,9","1,0,2,1,2","8,9,7,8,7",15,1.8338,5,3.1291,0,3,0.6666666666666666,compromise,Male,36,1
10,42,45,0.875,0,1.8,0.866666667,"9,9,9,9,9","8,9,9,7,6","1,0,0,2,3",85,2.2158,85,4.2631,100,1,0,stay,Male,36,1
10,43,45,0.5,0,1.5,0.511111111,"9,9,9,9,9","4,4,5,3,7","5,5,4,6,2",60,3.1337,55,2.7124,45,2,0.3333333333333333,compromise,Male,36,1
10,44,45,0.75,0,1.9,0.755555556,"9,9,9,9,9","8,5,6,7,8","1,4,3,2,1",80,2.2503,80,3.2457,65,1,-0,stay,Male,36,1
10,46,5,0.125,0,1.5,0.2,"1,1,1,1,1","0,0,0,1,0","1,1,1,0,1",20,2.284,15,3.5625,3,2,0.29411764705882354,compromise,Male,36,1
10,47,45,0.125,0,1.6,0.133333333,"9,9,9,9,9","1,1,2,2,0","8,8,7,7,9",20,2.3317,20,2.3641,3,1,-0,stay,Male,36,1
10,48,5,0.25,0,1.5,0.2,"1,1,1,1,1","0,0,0,1,0","1,1,1,0,1",40,2.6666,30,3.096,22,3,0.5555555555555556,compromise,Male,36,1
10,49,45,0.875,0,1.8,0.866666667,"9,9,9,9,9","9,8,6,8,8","0,1,3,1,1",85,2.6996000000000002,85,2.4465,100,2,0,stay,Male,36,1
10,52,5,0.125,0,1.9,0.2,"1,1,1,1,1","0,0,0,0,1","1,1,1,1,0",20,1.6494,5,4.4777,3,3,0.8823529411764706,compromise,Male,36,1
10,54,45,0.5,0,1.6,0.511111111,"9,9,9,9,9","5,6,4,4,4","4,3,5,5,5",45,1.7996,56,3.3301,60,3,0.7333333333333333,compromise,Male,36,1
12,1,5,0.625,0,2,0.6,"1,1,1,1,1","1,0,0,1,1","0,1,1,0,0",65,2.179,65,3.162,50,2,-0,stay,Male,23,1
12,3,5,0.875,0,1.8,0.8,"1,1,1,1,1","1,1,1,1,0","0,0,0,0,1",90,0.784,85,2.108,74,1,0.3125,compromise,Male,23,1
12,4,5,0.5,0,1.5,0.6,"1,1,1,1,1","1,0,0,1,1","0,1,1,0,0",50,1.642,60,1.679,68,2,0.5555555555555556,compromise,Male,23,1
12,7,5,0.625,0,1.5,0.6,"1,1,1,1,1","1,1,1,0,0","0,0,0,1,1",65,1.893,65,1.381,50,3,-0,stay,Male,23,1
12,8,45,0.375,0,2,0.377777778,"9,9,9,9,9","5,4,2,2,4","4,5,7,7,5",40,2.119,35,3.532,24,2,0.3125,compromise,Male,23,1
12,9,45,0.875,0,2,0.866666667,"9,9,9,9,9","8,7,7,9,8","1,2,2,0,1",90,1.014,90,1.569,75,3,-0,stay,Male,23,1
12,10,5,0.125,0,1.5,0.2,"1,1,1,1,1","1,0,0,0,0","0,1,1,1,1",30,1.704,30,1.251,15,2,-0,stay,Male,23,1
12,11,45,0.125,0,2,0.133333333,"9,9,9,9,9","2,1,2,1,0","7,8,7,8,9",10,2.496,15,1.09,26,1,0.3125,compromise,Male,23,1
12,13,5,0.75,0,1.6,0.8,"1,1,1,1,1","1,1,0,1,1","0,0,1,0,0",80,2.081,80,1.458,65,2,-0,stay,Male,23,1
12,14,5,0.75,0,1.7,0.8,"1,1,1,1,1","1,0,1,1,1","0,1,0,0,0",75,0.89,75,1.919,90,3,0,stay,Male,23,1
12,15,45,0.75,0,1.6,0.755555556,"9,9,9,9,9","7,9,6,6,6","2,0,3,3,3",80,0.96,80,2.493,62,3,-0,stay,Male,23,1
12,17,5,0.125,0,1.9,0.2,"1,1,1,1,1","0,1,0,0,0","1,0,1,1,1",20,1.923,20,1.466,2,1,-0,stay,Male,23,1
12,18,5,0.375,0,2,0.4,"1,1,1,1,1","0,1,1,0,0","1,0,0,1,1",40,3.195,40,1.188,24,2,-0,stay,Male,23,1
12,19,5,0.25,0,1.7,0.2,"1,1,1,1,1","0,0,1,0,0","1,1,0,1,1",20,2.076,25,3.999,37,1,0.29411764705882354,compromise,Male,23,1
12,21,45,0.5,0,1.8,0.511111111,"9,9,9,9,9","2,3,5,8,5","7,6,4,1,4",50,1.211,45,2.729,33,3,0.29411764705882354,compromise,Male,23,1
12,24,5,0.75,0,2,0.8,"1,1,1,1,1","1,1,1,1,0","0,0,0,0,1",85,1.721,85,1.788,68,1,-0,stay,Male,23,1
12,26,45,0.5,0,1.6,0.511111111,"9,9,9,9,9","5,4,5,7,2","4,5,4,2,7",50,1.864,50,1.641,67,1,0,stay,Male,23,1
12,27,45,0.125,0,1.5,0.133333333,"9,9,9,9,9","1,3,0,1,1","8,6,9,8,8",10,2.231,15,3.172,28,2,0.2777777777777778,compromise,Male,23,1
12,28,45,0.875,0,1.6,0.866666667,"9,9,9,9,9","9,8,9,6,7","0,1,0,3,2",90,0.992,85,3.8,74,1,0.3125,compromise,Male,23,1
12,29,5,0.625,0,1.7,0.6,"1,1,1,1,1","0,1,1,0,1","1,0,0,1,0",65,1.957,60,1.904,49,1,0.3125,compromise,Male,23,1
12,31,5,0.5,0,1.7,0.6,"1,1,1,1,1","1,0,0,1,1","0,1,1,0,0",65,1.165,65,1.774,50,3,-0,stay,Male,23,1
12,32,5,0.375,0,1.7,0.4,"1,1,1,1,1","0,0,1,0,1","1,1,0,1,0",40,1.12,35,1.98,24,3,0.3125,compromise,Male,23,1
12,33,45,0.375,0,2,0.377777778,"9,9,9,9,9","3,0,6,4,4","6,9,3,5,5",45,4.643,40,2.389,30,3,0.3333333333333333,compromise,Male,23,1
12,34,45,0.625,0,1.6,0.622222222,"9,9,9,9,9","4,7,5,6,6","5,2,4,3,3",50,2.555,50,1.607,67,1,0,stay,Male,23,1
12,35,45,0.625,0,1.5,0.622222222,"9,9,9,9,9","6,7,3,7,5","3,2,6,2,4",50,2.334,50,3.747,65,3,0,stay,Male,23,1
12,36,45,0.75,0,1.8,0.755555556,"9,9,9,9,9","7,7,6,7,7","2,2,3,2,2",80,0.949,75,3.417,65,2,0.3333333333333333,compromise,Male,23,1
12,38,45,0.375,0,1.8,0.377777778,"9,9,9,9,9","3,2,5,5,2","6,7,4,4,7",40,1.875,30,2.036,25,1,0.6666666666666666,compromise,Male,23,1
12,39,45,0.625,0,1.7,0.622222222,"9,9,9,9,9","7,3,6,5,7","2,6,3,4,2",80,2.153,70,1.539,63,2,0.5882352941176471,compromise,Male,23,1
12,40,5,0.25,0,1.6,0.2,"1,1,1,1,1","0,0,1,0,0","1,1,0,1,1",30,3.77,25,3.225,14,2,0.3125,compromise,Male,23,1
12,41,45,0.25,0,1.9,0.244444444,"9,9,9,9,9","2,1,4,3,1","7,8,5,6,8",20,2.464,20,1.711,35,3,0,stay,Male,23,1
12,42,45,0.125,0,1.8,0.133333333,"9,9,9,9,9","2,0,0,3,1","7,9,9,6,8",10,1.113,15,1.022,25,3,0.3333333333333333,compromise,Male,23,1
12,44,5,0.125,0,2,0.2,"1,1,1,1,1","0,0,0,1,0","1,1,1,0,1",20,2.792,15,2.352,5,3,0.3333333333333333,compromise,Male,23,1
12,46,5,0.5,0,2,0.6,"1,1,1,1,1","0,0,1,1,1","1,1,0,0,0",30,3.843,35,2.476,48,1,0.2777777777777778,compromise,Male,23,1
12,47,45,0.875,0,1.6,0.866666667,"9,9,9,9,9","9,8,6,8,8","0,1,3,1,1",90,1.83,85,2.975,74,2,0.3125,compromise,Male,23,1
12,49,45,0.25,0,1.7,0.244444444,"9,9,9,9,9","1,3,3,2,2","8,6,6,7,7",30,1.868,25,1.667,14,2,0.3125,compromise,Male,23,1
12,50,45,0.25,0,1.7,0.244444444,"9,9,9,9,9","3,4,0,1,3","6,5,9,8,6",40,5.174,35,2.649,24,1,0.3125,compromise,Male,23,1
12,51,45,0.5,0,1.8,0.511111111,"9,9,9,9,9","4,6,4,5,4","5,3,5,4,5",40,3.059,45,2.347,58,2,0.2777777777777778,compromise,Male,23,1
12,52,5,0.25,0,1.5,0.2,"1,1,1,1,1","0,0,1,0,0","1,1,0,1,1",50,8.516,40,4.052,33,3,0.5882352941176471,compromise,Male,23,1
12,53,45,0.75,0,1.8,0.755555556,"9,9,9,9,9","7,8,6,8,5","2,1,3,1,4",40,2.534,45,4.49,55,1,0.3333333333333333,compromise,Male,23,1
12,54,5,0.875,0,1.8,0.8,"1,1,1,1,1","1,1,0,1,1","0,0,1,0,0",40,3.161,45,2.521,56,3,0.3125,compromise,Male,23,1
13,1,5,0.25,0,2,0.2,"1,1,1,1,1","1,0,0,0,0","0,1,1,1,1",10,0.7642,25,3.4813,28,2,0.8333333333333334,compromise,Male,20,1
13,2,45,0.5,0,1.5,0.511111111,"9,9,9,9,9","5,3,6,6,3","4,6,3,3,6",70,2.1492,65,3.5483,55,1,0.3333333333333333,compromise,Male,20,1
13,3,45,0.875,0,1.9,0.866666667,"9,9,9,9,9","6,8,8,9,8","3,1,1,0,1",90,1.6164,90,1.8144,74,1,-0,stay,Male,20,1
13,4,5,0.625,0,1.6,0.6,"1,1,1,1,1","1,1,0,0,1","0,0,1,1,0",60,3.7993,60,3.7646,75,1,0,stay,Male,20,1
13,6,5,0.375,0,1.6,0.4,"1,1,1,1,1","0,0,0,1,1","1,1,1,0,0",15,1.5828,20,2.0311,30,1,0.3333333333333333,compromise,Male,20,1
13,7,45,0.125,0,1.7,0.133333333,"9,9,9,9,9","1,0,3,1,1","8,9,6,8,8",15,1.4994,15,5.7646,0,3,-0,stay,Male,20,1
13,8,45,0.625,0,1.8,0.622222222,"9,9,9,9,9","5,3,8,6,6","4,6,1,3,3",70,2.1826,65,3.6314,55,2,0.3333333333333333,compromise,Male,20,1
13,9,5,0.875,0,1.9,0.8,"1,1,1,1,1","1,1,0,1,1","0,0,1,0,0",60,3.0493,75,2.1311,75,1,1,copy,Male,20,1
13,10,45,0.75,0,2,0.755555556,"9,9,9,9,9","8,6,9,6,5","1,3,0,3,4",80,1.6328,70,2.2312,64,2,0.625,compromise,Male,20,1
13,11,5,0.125,0,1.8,0.2,"1,1,1,1,1","0,0,0,0,1","1,1,1,1,0",5,2.8993,15,1.9145,20,2,0.6666666666666666,compromise,Male,20,1
13,12,45,0.125,0,1.9,0.133333333,"9,9,9,9,9","0,3,1,1,1","9,6,8,8,8",8,1.3326,14,4.4645,25,2,0.35294117647058826,compromise,Male,20,1
13,16,45,0.625,0,2,0.622222222,"9,9,9,9,9","5,4,7,6,6","4,5,2,3,3",80,3.3326,75,4.9844,62,3,0.2777777777777778,compromise,Male,20,1
13,18,45,0.75,0,2,0.755555556,"9,9,9,9,9","6,6,8,8,6","3,3,1,1,3",85,1.766,83,4.7814,70,3,0.13333333333333333,compromise,Male,20,1
13,19,45,0.25,0,1.7,0.244444444,"9,9,9,9,9","2,2,3,2,2","7,7,6,7,7",17,3.066,24,2.7314,33,3,0.4375,compromise,Male,20,1
13,20,45,0.75,0,1.7,0.755555556,"9,9,9,9,9","7,8,5,7,7","2,1,4,2,2",76,2.4828,76,3.1315,59,1,-0,stay,Male,20,1
13,21,5,0.75,0,1.6,0.8,"1,1,1,1,1","0,1,1,1,1","1,0,0,0,0",80,2.216,74,3.4815,62,1,0.3333333333333333,compromise,Male,20,1
13,22,45,0.5,0,1.7,0.511111111,"9,9,9,9,9","6,5,2,6,4","3,4,7,3,5",75,2.8827,70,2.8814,60,2,0.3333333333333333,compromise,Male,20,1
13,23,5,0.75,0,1.5,0.8,"1,1,1,1,1","0,1,1,1,1","1,0,0,0,0",90,2.016,80,2.8474,75,2,0.6666666666666666,compromise,Male,20,1
13,27,5,0.25,0,1.8,0.2,"1,1,1,1,1","0,0,0,1,0","1,1,1,0,1",10,0.5827,15,3.398,25,1,0.3333333333333333,compromise,Male,20,1
13,28,5,0.125,0,1.5,0.2,"1,1,1,1,1","0,0,1,0,0","1,1,0,1,1",4,2.3828,16,3.6482,19,1,0.8,compromise,Male,20,1
13,30,45,0.375,0,1.6,0.377777778,"9,9,9,9,9","2,5,3,5,2","7,4,6,4,7",23,2.7161,33,2.7481,40,2,0.5882352941176471,compromise,Male,20,1
13,31,5,0.875,0,1.6,0.8,"1,1,1,1,1","1,1,1,1,0","0,0,0,0,1",80,1.566,95,2.7813,95,3,1,copy,Male,20,1
13,32,45,0.25,0,2,0.244444444,"9,9,9,9,9","4,2,3,0,2","5,7,6,9,7",25,2.5161,15,4.6148,10,2,0.6666666666666666,compromise,Male,20,1
13,34,45,0.875,0,1.9,0.866666667,"9,9,9,9,9","6,8,8,9,8","3,1,1,0,1",90,0.8161,90,1.9813,75,3,-0,stay,Male,20,1
13,36,45,0.25,0,1.8,0.244444444,"9,9,9,9,9","4,1,1,1,4","5,8,8,8,5",20,0.666,20,1.7814,35,1,0,stay,Male,20,1
13,38,45,0.875,0,2,0.866666667,"9,9,9,9,9","8,7,7,9,8","1,2,2,0,1",90,1.0993,90,2.2976,74,2,-0,stay,Male,20,1
13,39,5,0.25,0,1.9,0.2,"1,1,1,1,1","0,0,0,0,1","1,1,1,1,0",10,0.602,25,2.729,26,3,0.9375,compromise,Male,20,1
13,41,45,0.375,0,1.7,0.377777778,"9,9,9,9,9","3,7,3,1,3","6,2,6,8,6",45,3.066,40,2.2481,30,3,0.3333333333333333,compromise,Male,20,1
13,42,5,0.5,0,1.5,0.6,"1,1,1,1,1","1,0,1,0,1","0,1,0,1,0",65,3.5661,50,2.2481,48,2,0.8823529411764706,compromise,Male,20,1
13,45,5,0.5,0,1.5,0.6,"1,1,1,1,1","0,0,1,1,1","1,1,0,0,0",40,1.1995,46,4.9147,58,1,0.3333333333333333,compromise,Male,20,1
13,46,45,0.625,0,2,0.622222222,"9,9,9,9,9","3,7,5,6,7","6,2,4,3,2",80,0.8994,80,5.5481,65,1,-0,stay,Male,20,1
13,48,5,0.625,0,1.9,0.6,"1,1,1,1,1","0,0,1,1,1","1,1,0,0,0",60,2.2327,75,2.1808,76,3,0.9375,compromise,Male,20,1
13,49,5,0.125,0,1.7,0.2,"1,1,1,1,1","0,0,0,1,0","1,1,1,0,1",15,2.0999,15,3.9811,0,3,-0,stay,Male,20,1
13,50,45,0.5,0,1.8,0.511111111,"9,9,9,9,9","5,5,5,2,6","4,4,4,7,3",60,2.3327,50,4.0647,43,3,0.5882352941176471,compromise,Male,20,1
13,51,45,0.375,0,1.8,0.377777778,"9,9,9,9,9","6,2,4,2,3","3,7,5,7,6",45,1.7463,40,2.2813,30,1,0.3333333333333333,compromise,Male,20,1
13,52,5,0.375,0,1.7,0.4,"1,1,1,1,1","0,1,0,1,0","1,0,1,0,1",15,0.9827,25,2.1648,31,2,0.625,compromise,Male,20,1
14,1,45,0.625,0,2,0.622222222,"9,9,9,9,9","4,7,8,3,6","5,2,1,6,3",60,3.9329,60,6.9492,75,2,0,stay,Male,27,1
14,2,45,0.25,0,1.9,0.244444444,"9,9,9,9,9","4,1,2,0,4","5,8,7,9,5",20,1.6023,23,4.2462,37,1,0.17647058823529413,compromise,Male,27,1
14,3,45,0.875,0,1.8,0.866666667,"9,9,9,9,9","6,9,6,9,9","3,0,3,0,0",90,1.9332,80,8.3847,73,3,0.5882352941176471,compromise,Male,27,1
14,4,45,0.375,0,1.5,0.377777778,"9,9,9,9,9","4,4,4,3,2","5,5,5,6,7",35,2.0001,42,5.0986,51,3,0.4375,compromise,Male,27,1
14,6,5,0.5,0,1.5,0.6,"1,1,1,1,1","1,1,0,0,1","0,0,1,1,0",60,2.4836,50,5.9985,42,2,0.5555555555555556,compromise,Male,27,1
14,7,5,0.375,0,1.9,0.4,"1,1,1,1,1","1,0,0,0,1","0,1,1,1,0",40,3.4333,35,3.6484,22,1,0.2777777777777778,compromise,Male,27,1
14,8,45,0.125,0,2,0.133333333,"9,9,9,9,9","1,0,1,3,1","8,9,8,6,8",15,1.4834,12,6.7842,0,2,0.2,compromise,Male,27,1
14,9,45,0.125,0,2,0.133333333,"9,9,9,9,9","2,1,0,3,0","7,8,9,6,9",20,1.8499,15,2.6484,5,1,0.3333333333333333,compromise,Male,27,1
14,11,45,0.875,0,1.9,0.866666667,"9,9,9,9,9","7,9,7,8,8","2,0,2,1,1",80,1.333,85,4.2518,97,2,0.29411764705882354,compromise,Male,27,1
14,14,45,0.375,0,1.8,0.377777778,"9,9,9,9,9","4,2,3,3,5","5,7,6,6,4",65,1.8667,60,3.4817,50,2,0.3333333333333333,compromise,Male,27,1
14,16,5,0.75,0,1.8,0.8,"1,1,1,1,1","1,1,1,0,1","0,0,0,1,0",80,2.4836,75,3.9982,65,1,0.3333333333333333,compromise,Male,27,1
14,17,45,0.875,0,1.8,0.866666667,"9,9,9,9,9","8,8,9,8,6","1,1,0,1,3",85,2.3665,85,3.8654,100,1,0,stay,Male,27,1
14,19,5,0.125,0,1.7,0.2,"1,1,1,1,1","1,0,0,0,0","0,1,1,1,1",20,1.4519,13,4.2135,5,2,0.4666666666666667,compromise,Male,27,1
14,20,45,0.5,0,1.9,0.511111111,"9,9,9,9,9","5,3,6,7,2","4,6,3,2,7",60,1.4668,55,2.8316,42,2,0.2777777777777778,compromise,Male,27,1
14,21,5,0.625,0,1.5,0.6,"1,1,1,1,1","1,0,1,0,1","0,1,0,1,0",65,6.65,60,2.2653,50,3,0.3333333333333333,compromise,Male,27,1
14,22,5,0.375,0,1.5,0.4,"1,1,1,1,1","0,0,1,1,0","1,1,0,0,1",40,2.0835,30,4.0485,24,3,0.625,compromise,Male,27,1
14,23,5,0.5,0,1.8,0.6,"1,1,1,1,1","1,0,1,1,0","0,1,0,0,1",60,1.7001,55,4.5013,44,1,0.3125,compromise,Male,27,1
14,24,5,0.5,0,1.6,0.6,"1,1,1,1,1","1,1,0,0,1","0,0,1,1,0",60,1.2999,55,3.032,44,3,0.3125,compromise,Male,27,1
14,26,5,0.375,0,1.6,0.4,"1,1,1,1,1","1,0,0,0,1","0,1,1,1,0",40,2.4,35,3.6676,25,2,0.3333333333333333,compromise,Male,27,1
14,27,45,0.25,0,1.6,0.244444444,"9,9,9,9,9","1,3,3,3,1","8,6,6,6,8",35,1.5,27,2.4675,20,3,0.5333333333333333,compromise,Male,27,1
14,29,45,0.125,0,1.8,0.133333333,"9,9,9,9,9","1,1,0,2,2","8,8,9,7,7",10,1.169,14,6.2145,27,3,0.23529411764705882,compromise,Male,27,1
14,30,45,0.75,0,1.9,0.755555556,"9,9,9,9,9","7,8,5,8,6","2,1,4,1,3",70,0.7164,75,2.6155,85,3,0.3333333333333333,compromise,Male,27,1
14,31,5,0.25,0,1.5,0.2,"1,1,1,1,1","0,0,0,1,0","1,1,1,0,1",20,0.6497,27,6.1179,37,2,0.4117647058823529,compromise,Male,27,1
14,33,45,0.75,0,1.9,0.755555556,"9,9,9,9,9","6,6,7,7,8","3,3,2,2,1",75,1.5501,72,5.3171,59,2,0.1875,compromise,Male,27,1
14,34,5,0.625,0,1.5,0.6,"1,1,1,1,1","1,1,0,0,1","0,0,1,1,0",60,0.6165,67,4.3986,75,2,0.4666666666666667,compromise,Male,27,1
14,37,5,0.25,0,1.9,0.2,"1,1,1,1,1","1,0,0,0,0","0,1,1,1,1",20,0.5997,20,2.9512,37,1,0,stay,Male,27,1
14,38,5,0.875,0,1.5,0.8,"1,1,1,1,1","1,0,1,1,1","0,1,0,0,0",80,0.7188,90,3.2155,97,3,0.5882352941176471,compromise,Male,27,1
14,39,5,0.625,0,1.5,0.6,"1,1,1,1,1","1,1,0,0,1","0,0,1,1,0",60,1.0668,60,5.2009,75,1,0,stay,Male,27,1
14,40,5,0.25,0,1.9,0.2,"1,1,1,1,1","0,0,0,0,1","1,1,1,1,0",20,0.6165,30,4.3823,35,3,0.6666666666666666,compromise,Male,27,1
14,41,45,0.75,0,1.8,0.755555556,"9,9,9,9,9","6,6,6,8,8","3,3,3,1,1",80,1.6022,77,4.7966,63,1,0.17647058823529413,compromise,Male,27,1
14,42,5,0.125,0,2,0.2,"1,1,1,1,1","0,1,0,0,0","1,0,1,1,1",20,0.6167,20,6.6986,3,1,-0,stay,Male,27,1
14,43,45,0.25,0,1.9,0.244444444,"9,9,9,9,9","2,3,2,2,2","7,6,7,7,7",25,2.0018,18,4.8492,10,2,0.4666666666666667,compromise,Male,27,1
14,45,45,0.5,0,1.6,0.511111111,"9,9,9,9,9","3,6,4,5,5","6,3,5,4,4",50,1.4167,50,3.882,65,1,0,stay,Male,27,1
14,46,5,0.125,0,1.5,0.2,"1,1,1,1,1","0,0,0,1,0","1,1,1,0,1",20,0.6167,10,3.2653,2,3,0.5555555555555556,compromise,Male,27,1
14,47,5,0.75,0,1.5,0.8,"1,1,1,1,1","1,1,0,1,1","0,0,1,0,0",80,0.65,70,3.2651,65,3,0.6666666666666666,compromise,Male,27,1
14,48,45,0.375,0,1.7,0.377777778,"9,9,9,9,9","4,3,4,4,2","5,6,5,5,7",35,1.3666,35,3.0177,50,1,0,stay,Male,27,1
14,49,5,0.875,0,1.7,0.8,"1,1,1,1,1","1,1,1,1,0","0,0,0,0,1",80,0.6165,85,3.0654,96,2,0.3125,compromise,Male,27,1
14,50,45,0.625,0,1.5,0.622222222,"9,9,9,9,9","5,5,6,3,9","4,4,3,6,0",65,1.1001,65,5.2657,50,1,-0,stay,Male,27,1
14,51,5,0.875,0,1.9,0.8,"1,1,1,1,1","1,1,1,0,1","0,0,0,1,0",80,0.7188,80,2.1629,97,1,0,stay,Male,27,1
14,52,5,0.75,0,1.6,0.8,"1,1,1,1,1","1,1,1,0,1","0,0,0,1,0",80,0.7352,70,4.8798,65,2,0.6666666666666666,compromise,Male,27,1
14,53,45,0.625,0,1.6,0.622222222,"9,9,9,9,9","7,5,5,6,5","2,4,4,3,4",65,1.7331,60,4.5012,50,3,0.3333333333333333,compromise,Male,27,1
14,54,45,0.5,0,1.8,0.511111111,"9,9,9,9,9","4,6,5,4,4","5,3,4,5,5",50,1.4335,60,2.1818,65,3,0.6666666666666666,compromise,Male,27,1
15,2,45,0.875,0,1.7,0.866666667,"9,9,9,9,9","6,7,9,8,9","3,2,0,1,0",82,2.389015,82,3.706295,100,1,0,stay,Male,21,1
15,4,5,0.625,0,1.7,0.6,"1,1,1,1,1","1,0,1,0,1","0,1,0,1,0",60,2.784945,65,3.914395,75,3,0.3333333333333333,compromise,Male,21,1
15,5,5,0.5,0,1.5,0.6,"1,1,1,1,1","1,0,0,1,1","0,1,1,0,0",50,2.367795,50,2.71323,66,1,0,stay,Male,21,1
15,6,45,0.375,0,1.5,0.377777778,"9,9,9,9,9","6,3,2,3,3","3,6,7,6,6",35,7.026805,35,4.69247,53,2,0,stay,Male,21,1
15,8,45,0.5,0,2,0.511111111,"9,9,9,9,9","4,5,5,3,6","5,4,4,6,3",50,2.130955,50,3.741735,33,1,-0,stay,Male,21,1
15,9,5,0.875,0,1.9,0.8,"1,1,1,1,1","0,1,1,1,1","1,0,0,0,0",85,2.97215,85,3.671495,100,1,0,stay,Male,21,1
15,10,5,0.125,0,1.9,0.2,"1,1,1,1,1","0,0,0,1,0","1,1,1,0,1",15,3.637875,15,3.761785,0,2,-0,stay,Male,21,1
15,12,45,0.375,0,2,0.377777778,"9,9,9,9,9","2,3,5,5,2","7,6,4,4,7",40,3.347645,35,3.15745,24,3,0.3125,compromise,Male,21,1
15,13,5,0.875,0,1.7,0.8,"1,1,1,1,1","0,1,1,1,1","1,0,0,0,0",75,3.2153,80,3.11001,90,3,0.3333333333333333,compromise,Male,21,1
15,14,5,0.25,0,1.9,0.2,"1,1,1,1,1","1,0,0,0,0","0,1,1,1,1",15,3.430275,20,3.57291,30,3,0.3333333333333333,compromise,Male,21,1
15,15,45,0.25,0,1.5,0.244444444,"9,9,9,9,9","2,3,3,1,2","7,6,6,8,7",15,5.243155,15,2.997655,30,1,0,stay,Male,21,1
15,16,45,0.5,0,1.6,0.511111111,"9,9,9,9,9","5,6,4,4,4","4,3,5,5,5",60,3.70057,55,3.65144,44,2,0.3125,compromise,Male,21,1
15,18,45,0.75,0,1.6,0.755555556,"9,9,9,9,9","7,8,6,6,7","2,1,3,3,2",77,4.338925,69,4.602965,60,2,0.47058823529411764,compromise,Male,21,1
15,20,45,0.25,0,2,0.244444444,"9,9,9,9,9","2,2,5,1,1","7,7,4,8,8",24,3.923565,30,3.03911,40,3,0.375,compromise,Male,21,1
15,21,5,0.75,0,1.9,0.8,"1,1,1,1,1","1,1,1,0,1","0,0,0,1,0",80,6.88802,75,5.810245,64,2,0.3125,compromise,Male,21,1
15,22,45,0.875,0,1.5,0.866666667,"9,9,9,9,9","6,7,9,8,9","3,2,0,1,0",90,4.396485,87,5.087765,75,3,0.2,compromise,Male,21,1
15,23,5,0.5,0,1.7,0.6,"1,1,1,1,1","1,1,0,1,0","0,0,1,0,1",65,4.793765,64,5.64857,50,2,0.06666666666666667,compromise,Male,21,1
15,24,5,0.75,0,1.8,0.8,"1,1,1,1,1","1,1,1,0,1","0,0,0,1,0",80,2.49301,73,3.97702,62,3,0.3888888888888889,compromise,Male,21,1
15,25,5,0.125,0,1.7,0.2,"1,1,1,1,1","0,1,0,0,0","1,0,1,1,1",35,4.55519,35,3.714305,20,1,-0,stay,Male,21,1
15,26,5,0.25,0,1.5,0.2,"1,1,1,1,1","0,0,1,0,0","1,1,0,1,1",20,3.47143,20,3.63011,35,1,0,stay,Male,21,1
15,28,45,0.75,0,1.6,0.755555556,"9,9,9,9,9","6,9,6,5,8","3,0,3,4,1",80,2.486015,80,3.69203,63,1,-0,stay,Male,21,1
15,29,45,0.625,0,1.9,0.622222222,"9,9,9,9,9","6,7,5,4,6","3,2,4,5,3",69,3.617995,67,4.241035,51,2,0.1111111111111111,compromise,Male,21,1
15,30,5,0.375,0,1.7,0.4,"1,1,1,1,1","0,1,0,1,0","1,0,1,0,1",45,3.603935,38,4.7477,30,3,0.4666666666666667,compromise,Male,21,1
15,31,45,0.625,0,2,0.622222222,"9,9,9,9,9","7,8,4,6,3","2,1,5,3,6",67,3.04843,67,2.74165,50,1,-0,stay,Male,21,1
15,32,5,0.375,0,1.8,0.4,"1,1,1,1,1","0,1,0,1,0","1,0,1,0,1",50,2.70044,45,3.457115,35,2,0.3333333333333333,compromise,Male,21,1
15,33,45,0.875,0,1.5,0.866666667,"9,9,9,9,9","9,9,8,7,6","0,0,1,2,3",89,2.90257,87,4.023725,74,2,0.13333333333333333,compromise,Male,21,1
15,34,45,0.625,0,1.7,0.622222222,"9,9,9,9,9","7,5,5,6,5","2,4,4,3,4",55,3.916075,64,3.623305,72,3,0.5294117647058824,compromise,Male,21,1
15,35,45,0.125,0,1.8,0.133333333,"9,9,9,9,9","0,3,0,2,1","9,6,9,7,8",19,4.87468,19,3.6447,2,1,-0,stay,Male,21,1
15,36,45,0.25,0,2,0.244444444,"9,9,9,9,9","1,5,1,1,3","8,4,8,8,6",35,2.302965,35,4.21552,18,2,-0,stay,Male,21,1
15,37,45,0.75,0,1.8,0.755555556,"9,9,9,9,9","6,9,7,7,5","3,0,2,2,4",80,2.826125,70,3.324685,62,3,0.5555555555555556,compromise,Male,21,1
15,39,5,0.25,0,1.9,0.2,"1,1,1,1,1","0,0,1,0,0","1,1,0,1,1",20,4.170415,23,6.004815,37,2,0.17647058823529413,compromise,Male,21,1
15,40,5,0.375,0,1.5,0.4,"1,1,1,1,1","1,1,0,0,0","0,0,1,1,1",35,2.60482,36,2.52575,50,1,0.06666666666666667,compromise,Male,21,1
15,45,5,0.125,0,1.9,0.2,"1,1,1,1,1","0,0,1,0,0","1,1,0,1,1",20,2.464425,15,4.11695,4,3,0.3125,compromise,Male,21,1
15,46,5,0.75,0,1.6,0.8,"1,1,1,1,1","1,1,1,1,0","0,0,0,0,1",80,2.23402,80,4.39375,65,1,-0,stay,Male,21,1
15,47,45,0.125,0,1.8,0.133333333,"9,9,9,9,9","0,1,2,3,0","9,8,7,6,9",10,2.33338,15,2.199835,28,3,0.2777777777777778,compromise,Male,21,1
15,48,5,0.5,0,2,0.6,"1,1,1,1,1","1,1,0,0,1","0,0,1,1,0",50,2.540935,42,3.13746,35,3,0.5333333333333333,compromise,Male,21,1
15,49,5,0.625,0,1.8,0.6,"1,1,1,1,1","1,0,0,1,1","0,1,1,0,0",65,2.00695,65,2.10196,49,1,-0,stay,Male,21,1
15,50,45,0.5,0,1.6,0.511111111,"9,9,9,9,9","7,5,3,4,4","2,4,6,5,5",50,1.99274,45,2.706065,33,3,0.29411764705882354,compromise,Male,21,1
15,51,45,0.375,0,1.9,0.377777778,"9,9,9,9,9","2,4,2,5,4","7,5,7,4,5",50,1.95133,50,2.414285,35,1,-0,stay,Male,21,1
15,52,5,0.875,0,1.5,0.8,"1,1,1,1,1","1,1,1,1,0","0,0,0,0,1",82,3.77694,82,2.60983,100,2,0,stay,Male,21,1
15,53,5,0.625,0,1.7,0.6,"1,1,1,1,1","1,0,1,1,0","0,1,0,0,1",45,2.16666,50,2.29665,60,2,0.3333333333333333,compromise,Male,21,1
15,54,45,0.125,0,1.5,0.133333333,"9,9,9,9,9","1,3,1,0,1","8,6,8,9,8",20,4.01295,15,2.19931,4,2,0.3125,compromise,Male,21,1
17,1,5,0.875,0,1.5,0.8,"1,1,1,1,1","1,0,1,1,1","0,1,0,0,0",60,3.1139,70,4.4573,78,2,0.5555555555555556,compromise,Female,21,1
17,3,5,0.875,0,2,0.8,"1,1,1,1,1","1,1,1,1,0","0,0,0,0,1",90,2.0644,75,7.9397,72,3,0.8333333333333334,compromise,Female,21,1
17,4,5,0.375,0,1.5,0.4,"1,1,1,1,1","1,1,0,0,0","0,0,1,1,1",40,1.9658,30,4.25,22,1,0.5555555555555556,compromise,Female,21,1
17,5,45,0.625,0,2,0.622222222,"9,9,9,9,9","7,5,3,7,6","2,4,6,2,3",60,1.855,70,4.2695,75,3,0.6666666666666666,compromise,Female,21,1
17,6,45,0.5,0,1.9,0.511111111,"9,9,9,9,9","4,5,3,7,4","5,4,6,2,5",50,2.5659,40,3.8082,32,2,0.5555555555555556,compromise,Female,21,1
17,8,5,0.5,0,1.8,0.6,"1,1,1,1,1","1,0,1,1,0","0,1,0,0,1",40,3.7987,50,3.3238,55,2,0.6666666666666666,compromise,Female,21,1
17,9,45,0.25,0,1.7,0.244444444,"9,9,9,9,9","3,2,3,1,2","6,7,6,8,7",30,3.481,20,3.1925,12,1,0.5555555555555556,compromise,Female,21,1
17,10,5,0.5,0,1.7,0.6,"1,1,1,1,1","1,1,0,1,0","0,0,1,0,1",40,4.4338,50,3.4373,55,3,0.6666666666666666,compromise,Female,21,1
17,11,45,0.125,0,2,0.133333333,"9,9,9,9,9","3,1,1,1,0","6,8,8,8,9",5,1.8507,10,2.8199,20,3,0.3333333333333333,compromise,Female,21,1
17,12,45,0.75,0,1.5,0.755555556,"9,9,9,9,9","8,6,6,6,8","1,3,3,3,1",90,3.8147,80,3.2771,74,2,0.625,compromise,Female,21,1
17,13,45,0.875,0,2,0.866666667,"9,9,9,9,9","8,8,8,8,7","1,1,1,1,2",90,2.7842,80,2.6189,73,2,0.5882352941176471,compromise,Female,21,1
17,14,5,0.75,0,1.5,0.8,"1,1,1,1,1","1,1,1,0,1","0,0,0,1,0",70,3.249,80,3.021,85,1,0.6666666666666666,compromise,Female,21,1
17,15,5,0.125,0,1.7,0.2,"1,1,1,1,1","0,0,1,0,0","1,1,0,1,1",10,1.7156,20,2.4237,28,2,0.5555555555555556,compromise,Female,21,1
17,16,5,0.125,0,1.5,0.2,"1,1,1,1,1","0,0,0,0,1","1,1,1,1,0",10,4.7466,20,5.4303,26,1,0.625,compromise,Female,21,1
17,17,5,0.25,0,2,0.2,"1,1,1,1,1","0,0,1,0,0","1,1,0,1,1",10,3.5073,20,2.0506,25,3,0.6666666666666666,compromise,Female,21,1
17,18,45,0.125,0,1.9,0.133333333,"9,9,9,9,9","0,2,2,0,2","9,7,7,9,7",20,4.1383,5,6.5779,4,2,0.9375,compromise,Female,21,1
17,21,5,0.75,0,1.6,0.8,"1,1,1,1,1","1,1,0,1,1","0,0,1,0,0",80,4.6329,70,4.2575,63,2,0.5882352941176471,compromise,Female,21,1
17,22,45,0.875,0,1.7,0.866666667,"9,9,9,9,9","8,9,8,8,6","1,0,1,1,3",90,2.0157,80,2.6403,75,3,0.6666666666666666,compromise,Female,21,1
17,23,5,0.375,0,1.7,0.4,"1,1,1,1,1","1,0,0,0,1","0,1,1,1,0",40,1.8822,30,2.3911,25,2,0.6666666666666666,compromise,Female,21,1
17,25,45,0.75,0,1.5,0.755555556,"9,9,9,9,9","8,6,6,9,5","1,3,3,0,4",65,4.1443,75,5.0151,80,3,0.6666666666666666,compromise,Female,21,1
17,26,45,0.25,0,1.9,0.244444444,"9,9,9,9,9","1,1,5,2,2","8,8,4,7,7",30,1.9671,20,2.9434,15,2,0.6666666666666666,compromise,Female,21,1
17,27,45,0.75,0,1.6,0.755555556,"9,9,9,9,9","7,6,7,7,7","2,3,2,2,2",60,2.9012,70,2.4573,78,1,0.5555555555555556,compromise,Female,21,1
17,28,5,0.25,0,1.7,0.2,"1,1,1,1,1","0,0,0,1,0","1,1,1,0,1",10,1.6831,20,2.0042,25,2,0.6666666666666666,compromise,Female,21,1
17,29,45,0.625,0,1.5,0.622222222,"9,9,9,9,9","6,5,6,5,6","3,4,3,4,3",65,4.1141,55,3.6608,50,1,0.6666666666666666,compromise,Female,21,1
17,31,45,0.5,0,2,0.511111111,"9,9,9,9,9","5,3,5,4,6","4,6,4,5,3",50,2.1898,60,2.9019,65,3,0.6666666666666666,compromise,Female,21,1
17,32,5,0.625,0,1.7,0.6,"1,1,1,1,1","1,1,1,0,0","0,0,0,1,1",60,5.3809,70,2.4188,76,2,0.625,compromise,Female,21,1
17,33,5,0.625,0,2,0.6,"1,1,1,1,1","1,0,1,1,0","0,1,0,0,1",60,4.566,70,2.2052,76,3,0.625,compromise,Female,21,1
17,37,45,0.375,0,1.6,0.377777778,"9,9,9,9,9","5,3,2,4,3","4,6,7,5,6",40,1.6117,30,3.0073,22,1,0.5555555555555556,compromise,Female,21,1
17,38,45,0.25,0,1.6,0.244444444,"9,9,9,9,9","3,4,2,0,2","6,5,7,9,7",30,3.8989,20,6.3093,14,3,0.625,compromise,Female,21,1
17,39,5,0.5,0,1.7,0.6,"1,1,1,1,1","1,0,0,1,1","0,1,1,0,0",40,2.6155,50,2.611,57,1,0.5882352941176471,compromise,Female,21,1
17,40,45,0.625,0,1.8,0.622222222,"9,9,9,9,9","9,4,5,5,5","0,5,4,4,4",60,1.8997,70,2.5788,78,2,0.5555555555555556,compromise,Female,21,1
17,41,45,0.375,0,1.7,0.377777778,"9,9,9,9,9","4,2,3,4,4","5,7,6,5,5",50,2.5317,40,5.3765,32,2,0.5555555555555556,compromise,Female,21,1
17,43,45,0.5,0,2,0.511111111,"9,9,9,9,9","5,5,3,4,6","4,4,6,5,3",60,2.5985,50,7.6942,44,1,0.625,compromise,Female,21,1
17,44,45,0.875,0,1.6,0.866666667,"9,9,9,9,9","7,7,8,8,9","2,2,1,1,0",90,3.3993,80,4.9269,74,1,0.625,compromise,Female,21,1
17,45,5,0.625,0,1.8,0.6,"1,1,1,1,1","1,0,1,0,1","0,1,0,1,0",70,2.8489,60,2.4773,52,1,0.5555555555555556,compromise,Female,21,1
17,46,5,0.875,0,1.6,0.8,"1,1,1,1,1","1,0,1,1,1","0,1,0,0,0",60,2.0658,65,2.3244,76,1,0.3125,compromise,Female,21,1
17,47,5,0.125,0,1.7,0.2,"1,1,1,1,1","0,0,0,0,1","1,1,1,1,0",30,3.0329,20,3.4105,12,3,0.5555555555555556,compromise,Female,21,1
17,48,5,0.75,0,1.8,0.8,"1,1,1,1,1","1,1,0,1,1","0,0,1,0,0",60,1.5316,70,2.3075,75,3,0.6666666666666666,compromise,Female,21,1
17,49,5,0.375,0,2,0.4,"1,1,1,1,1","1,0,1,0,0","0,1,0,1,1",30,1.4325,40,2.0096,48,3,0.5555555555555556,compromise,Female,21,1
17,50,5,0.25,0,2,0.2,"1,1,1,1,1","0,1,0,0,0","1,0,1,1,1",20,1.3489,25,3.0589,35,1,0.3333333333333333,compromise,Female,21,1
17,52,45,0.375,0,1.9,0.377777778,"9,9,9,9,9","3,5,2,3,4","6,4,7,6,5",50,1.6501,40,2.5392,35,3,0.6666666666666666,compromise,Female,21,1
17,53,45,0.125,0,2,0.133333333,"9,9,9,9,9","0,2,1,1,2","9,7,8,8,7",30,1.8319,20,2.177,15,1,0.6666666666666666,compromise,Female,21,1
18,2,45,0.875,0,2,0.866666667,"9,9,9,9,9","6,9,8,7,9","3,0,1,2,0",80,0.7498,85,4.2829,95,2,0.3333333333333333,compromise,Male,23,1
18,4,5,0.375,0,1.9,0.4,"1,1,1,1,1","0,0,0,1,1","1,1,1,0,0",60,1.2013,55,2.0532,43,2,0.29411764705882354,compromise,Male,23,1
18,5,45,0.5,0,1.5,0.511111111,"9,9,9,9,9","4,4,7,4,4","5,5,2,5,5",50,1.1527,55,2.5187,67,2,0.29411764705882354,compromise,Male,23,1
18,6,45,0.125,0,1.7,0.133333333,"9,9,9,9,9","1,1,1,2,1","8,8,8,7,8",10,3.5831,15,1.9633,25,2,0.3333333333333333,compromise,Male,23,1
18,7,5,0.75,0,2,0.8,"1,1,1,1,1","1,1,1,0,1","0,0,0,1,0",49,4.4234,55,1.8941,66,2,0.35294117647058826,compromise,Male,23,1
18,8,45,0.875,0,1.9,0.866666667,"9,9,9,9,9","7,9,9,8,6","2,0,0,1,3",80,1.8131,80,2.3794,95,1,0,stay,Male,23,1
18,9,5,0.5,0,1.6,0.6,"1,1,1,1,1","1,0,1,0,1","0,1,0,1,0",60,2.389,50,2.4284,45,1,0.6666666666666666,compromise,Male,23,1
18,10,45,0.625,0,1.8,0.622222222,"9,9,9,9,9","6,5,5,5,7","3,4,4,4,2",60,1.6805,65,0.9773,78,3,0.2777777777777778,compromise,Male,23,1
18,11,45,0.125,0,1.6,0.133333333,"9,9,9,9,9","1,1,0,3,1","8,8,9,6,8",20,0.6879,15,2.9561,5,3,0.3333333333333333,compromise,Male,23,1
18,12,45,0.375,0,1.6,0.377777778,"9,9,9,9,9","2,4,3,2,6","7,5,6,7,3",30,1.8262,35,1.7551,46,3,0.3125,compromise,Male,23,1
18,14,5,0.625,0,1.8,0.6,"1,1,1,1,1","1,1,0,0,1","0,0,1,1,0",60,1.597,64,0.9157,77,1,0.23529411764705882,compromise,Male,23,1
18,15,5,0.75,0,1.8,0.8,"1,1,1,1,1","1,1,1,0,1","0,0,0,1,0",80,0.7092,75,2.1844,65,3,0.3333333333333333,compromise,Male,23,1
18,16,5,0.125,0,1.5,0.2,"1,1,1,1,1","0,0,0,0,1","1,1,1,1,0",20,1.1815,15,2.1025,3,1,0.29411764705882354,compromise,Male,23,1
18,17,5,0.125,0,1.7,0.2,"1,1,1,1,1","0,1,0,0,0","1,0,1,1,1",40,1.3257,30,1.8944,25,2,0.6666666666666666,compromise,Male,23,1
18,20,5,0.25,0,1.8,0.2,"1,1,1,1,1","0,0,0,1,0","1,1,1,0,1",20,1.382,25,1.4282,37,2,0.29411764705882354,compromise,Male,23,1
18,21,45,0.5,0,1.5,0.511111111,"9,9,9,9,9","3,6,6,4,4","6,3,3,5,5",50,1.6529,40,1.9978,34,1,0.625,compromise,Male,23,1
18,23,5,0.875,0,1.8,0.8,"1,1,1,1,1","0,1,1,1,1","1,0,0,0,0",40,1.8818,45,1.7762,57,1,0.29411764705882354,compromise,Male,23,1
18,24,5,0.25,0,1.6,0.2,"1,1,1,1,1","0,0,0,1,0","1,1,1,0,1",20,2.6111,30,1.137,35,3,0.6666666666666666,compromise,Male,23,1
18,26,45,0.75,0,2,0.755555556,"9,9,9,9,9","6,8,6,7,7","3,1,3,2,2",70,1.132,75,2.7134,85,2,0.3333333333333333,compromise,Male,23,1
18,27,5,0.5,0,1.8,0.6,"1,1,1,1,1","1,1,0,0,1","0,0,1,1,0",60,2.8749,50,1.4702,43,3,0.5882352941176471,compromise,Male,23,1
18,28,45,0.5,0,1.8,0.511111111,"9,9,9,9,9","5,1,4,6,7","4,8,5,3,2",60,0.7161,50,3.4835,43,3,0.5882352941176471,compromise,Male,23,1
18,29,45,0.375,0,1.6,0.377777778,"9,9,9,9,9","6,1,3,3,4","3,8,6,6,5",60,1.4792,50,2.9005,45,2,0.6666666666666666,compromise,Male,23,1
18,30,5,0.25,0,1.8,0.2,"1,1,1,1,1","0,0,1,0,0","1,1,0,1,1",20,0.8054,25,1.4499,35,1,0.3333333333333333,compromise,Male,23,1
18,31,45,0.875,0,1.8,0.866666667,"9,9,9,9,9","8,7,7,8,9","1,2,2,1,0",90,1.0278,90,1.7136,75,3,-0,stay,Male,23,1
18,32,45,0.375,0,2,0.377777778,"9,9,9,9,9","5,3,3,3,3","4,6,6,6,6",40,0.868,35,2.1157,24,1,0.3125,compromise,Male,23,1
18,33,5,0.375,0,1.5,0.4,"1,1,1,1,1","0,0,0,1,1","1,1,1,0,0",40,1.5417,40,1.1576,25,3,-0,stay,Male,23,1
18,35,45,0.625,0,1.6,0.622222222,"9,9,9,9,9","8,6,4,5,5","1,3,5,4,4",55,1.6595,60,2.186,70,2,0.3333333333333333,compromise,Male,23,1
18,36,5,0.375,0,1.9,0.4,"1,1,1,1,1","1,0,0,0,1","0,1,1,1,0",40,2.1389,35,2.477,24,1,0.3125,compromise,Male,23,1
18,37,5,0.5,0,1.6,0.6,"1,1,1,1,1","0,1,0,1,1","1,0,1,0,0",40,3.3745,45,2.456,58,2,0.2777777777777778,compromise,Male,23,1
18,38,45,0.625,0,1.7,0.622222222,"9,9,9,9,9","5,5,7,5,6","4,4,2,4,3",55,1.3553,60,1.9068,72,1,0.29411764705882354,compromise,Male,23,1
18,40,5,0.75,0,1.5,0.8,"1,1,1,1,1","1,1,0,1,1","0,0,1,0,0",80,0.862,80,2.6709,65,1,-0,stay,Male,23,1
18,41,5,0.875,0,1.9,0.8,"1,1,1,1,1","1,0,1,1,1","0,1,0,0,0",80,1.3958,80,2.1783,97,3,0,stay,Male,23,1
18,44,5,0.625,0,2,0.6,"1,1,1,1,1","1,0,1,0,1","0,1,0,1,0",50,2.7917,55,1.1448,66,3,0.3125,compromise,Male,23,1
18,45,45,0.25,0,1.9,0.244444444,"9,9,9,9,9","4,3,0,2,2","5,6,9,7,7",35,0.49370000000000003,30,1.3801,19,3,0.3125,compromise,Male,23,1
18,46,45,0.75,0,1.8,0.755555556,"9,9,9,9,9","6,7,6,7,8","3,2,3,2,1",80,1.3829,75,3.1085,65,3,0.3333333333333333,compromise,Male,23,1
18,48,45,0.75,0,1.7,0.755555556,"9,9,9,9,9","9,4,7,8,6","0,5,2,1,3",80,2.1943,75,1.8802,65,1,0.3333333333333333,compromise,Male,23,1
18,50,5,0.125,0,1.7,0.2,"1,1,1,1,1","0,0,0,1,0","1,1,1,0,1",20,1.1596,20,1.9012,2,3,-0,stay,Male,23,1
18,51,45,0.25,0,1.5,0.244444444,"9,9,9,9,9","1,3,1,2,4","8,6,8,7,5",40,1.9374,40,1.0966,24,1,-0,stay,Male,23,1
18,53,5,0.875,0,1.9,0.8,"1,1,1,1,1","1,1,0,1,1","0,0,1,0,0",80,1.8474,80,0.9491,97,2,0,stay,Male,23,1
18,54,5,0.625,0,1.6,0.6,"1,1,1,1,1","1,0,1,1,0","0,1,0,0,1",70,2.6319,60,1.8025,55,2,0.6666666666666666,compromise,Male,23,1
19,1,45,0.5,0,1.6,0.511111111,"9,9,9,9,9","3,4,4,8,4","6,5,5,1,5",50,5.169,45,3.132,35,3,0.3333333333333333,compromise,Male,28,1
19,2,5,0.875,0,1.6,0.8,"1,1,1,1,1","0,1,1,1,1","1,0,0,0,0",64,5.233,79,4.972,81,3,0.8823529411764706,compromise,Male,28,1
19,4,5,0.5,0,2,0.6,"1,1,1,1,1","1,1,0,1,0","0,0,1,0,1",60,4.1,60,3.272,44,1,-0,stay,Male,28,1
19,5,45,0.75,0,1.6,0.755555556,"9,9,9,9,9","7,6,7,9,5","2,3,2,0,4",75,5.465,75,4.359,60,1,-0,stay,Male,28,1
19,6,5,0.375,0,1.7,0.4,"1,1,1,1,1","0,0,1,1,0","1,1,0,0,1",50,2.455,50,2.788,35,2,-0,stay,Male,28,1
19,7,45,0.25,0,1.9,0.244444444,"9,9,9,9,9","2,2,2,3,2","7,7,7,6,7",25,5.934,22,3.292,10,1,0.2,compromise,Male,28,1
19,8,5,0.25,0,1.6,0.2,"1,1,1,1,1","0,1,0,0,0","1,0,1,1,1",25,5.221,30,4.739,40,1,0.3333333333333333,compromise,Male,28,1
19,9,5,0.125,0,1.6,0.2,"1,1,1,1,1","0,1,0,0,0","1,0,1,1,1",25,5.679,15,4.422,10,2,0.6666666666666666,compromise,Male,28,1
19,11,45,0.625,0,1.9,0.622222222,"9,9,9,9,9","5,5,7,4,7","4,4,2,5,2",60,5.179,60,3.473,76,3,0,stay,Male,28,1
19,14,5,0.25,0,1.8,0.2,"1,1,1,1,1","0,0,0,1,0","1,1,1,0,1",20,5.035,25,3.238,38,3,0.2777777777777778,compromise,Male,28,1
19,16,45,0.375,0,1.8,0.377777778,"9,9,9,9,9","4,5,3,3,2","5,4,6,6,7",34,4.859,40,3.701,50,3,0.375,compromise,Male,28,1
19,17,45,0.875,0,1.5,0.866666667,"9,9,9,9,9","8,7,8,8,8","1,2,1,1,1",75,2.916,80,3.349,90,2,0.3333333333333333,compromise,Male,28,1
19,19,5,0.75,0,2,0.8,"1,1,1,1,1","0,1,1,1,1","1,0,0,0,0",75,6.424,80,2.807,90,3,0.3333333333333333,compromise,Male,28,1
19,20,45,0.375,0,1.8,0.377777778,"9,9,9,9,9","3,4,1,5,4","6,5,8,4,5",40,4.355,33,3.318,22,1,0.3888888888888889,compromise,Male,28,1
19,21,5,0.625,0,1.9,0.6,"1,1,1,1,1","1,1,1,0,0","0,0,0,1,1",75,4.386,75,2.764,60,3,-0,stay,Male,28,1
19,25,5,0.75,0,1.5,0.8,"1,1,1,1,1","1,1,1,0,1","0,0,0,1,0",90,2.404,87,3.165,72,2,0.16666666666666666,compromise,Male,28,1
19,26,45,0.625,0,1.5,0.622222222,"9,9,9,9,9","6,5,3,9,5","3,4,6,0,4",55,1.619,60,2.262,70,2,0.3333333333333333,compromise,Male,28,1
19,28,45,0.875,0,1.5,0.866666667,"9,9,9,9,9","8,7,9,7,8","1,2,0,2,1",75,4.3,80,2.915,90,3,0.3333333333333333,compromise,Male,28,1
19,31,45,0.5,0,1.6,0.511111111,"9,9,9,9,9","3,4,5,5,6","6,5,4,4,3",45,4.217,50,3.061,60,2,0.3333333333333333,compromise,Male,28,1
19,33,5,0.375,0,1.6,0.4,"1,1,1,1,1","0,1,1,0,0","1,0,0,1,1",20,3.058,20,1.412,38,1,0,stay,Male,28,1
19,35,45,0.125,0,1.7,0.133333333,"9,9,9,9,9","0,2,1,0,3","9,7,8,9,6",12,1.635,25,3.395,30,3,0.7222222222222222,compromise,Male,28,1
19,36,45,0.75,0,1.6,0.755555556,"9,9,9,9,9","7,6,7,6,8","2,3,2,3,1",85,2.255,85,2.748,70,2,-0,stay,Male,28,1
19,37,45,0.125,0,1.8,0.133333333,"9,9,9,9,9","0,1,2,2,1","9,8,7,7,8",15,2.472,15,2.064,0,1,-0,stay,Male,28,1
19,38,5,0.625,0,1.5,0.6,"1,1,1,1,1","1,0,1,0,1","0,1,0,1,0",75,3.785,75,2.29,60,1,-0,stay,Male,28,1
19,39,5,0.5,0,1.8,0.6,"1,1,1,1,1","0,1,1,1,0","1,0,0,0,1",57,5.95,50,3.379,40,3,0.4117647058823529,compromise,Male,28,1
19,41,45,0.125,0,1.6,0.133333333,"9,9,9,9,9","0,2,0,2,2","9,7,9,7,7",25,4.577,25,2.38,8,2,-0,stay,Male,28,1
19,43,5,0.5,0,1.7,0.6,"1,1,1,1,1","0,1,1,0,1","1,0,0,1,0",55,4.409,55,1.365,40,2,-0,stay,Male,28,1
19,44,45,0.25,0,1.6,0.244444444,"9,9,9,9,9","1,1,3,3,3","8,8,6,6,6",40,5.195,35,3.005,24,3,0.3125,compromise,Male,28,1
19,45,45,0.25,0,1.9,0.244444444,"9,9,9,9,9","2,1,1,2,5","7,8,8,7,4",30,6.312,30,1.651,14,2,-0,stay,Male,28,1
19,46,45,0.75,0,1.9,0.755555556,"9,9,9,9,9","7,7,6,7,7","2,2,3,2,2",79,3.606,75,3.235,62,3,0.23529411764705882,compromise,Male,28,1
19,47,5,0.875,0,1.7,0.8,"1,1,1,1,1","0,1,1,1,1","1,0,0,0,0",75,4.679,75,3.571,93,1,0,stay,Male,28,1
19,48,45,0.375,0,1.7,0.377777778,"9,9,9,9,9","1,5,3,4,4","8,4,6,5,5",40,4.118,40,2.643,23,2,-0,stay,Male,28,1
19,49,5,0.875,0,1.6,0.8,"1,1,1,1,1","1,0,1,1,1","0,1,0,0,0",80,3.2,80,3.495,96,2,0,stay,Male,28,1
19,50,45,0.875,0,1.6,0.866666667,"9,9,9,9,9","8,8,8,6,9","1,1,1,3,0",90,1.577,90,1.787,74,1,-0,stay,Male,28,1
19,52,5,0.75,0,1.7,0.8,"1,1,1,1,1","1,1,1,1,0","0,0,0,0,1",85,2.54,85,1.128,69,1,-0,stay,Male,28,1
19,53,5,0.625,0,1.8,0.6,"1,1,1,1,1","1,0,1,0,1","0,1,0,1,0",75,3.633,65,3.37,60,2,0.6666666666666666,compromise,Male,28,1
20,1,45,0.875,0,2,0.866666667,"9,9,9,9,9","8,7,8,8,8","1,2,1,1,1",95,1.6655,90,2.3462,80,3,0.3333333333333333,compromise,Female,23,1
20,2,5,0.625,0,1.5,0.6,"1,1,1,1,1","0,1,0,1,1","1,0,1,0,0",60,1.65,60,2.413,75,1,0,stay,Female,23,1
20,3,45,0.625,0,1.7,0.622222222,"9,9,9,9,9","6,4,6,6,6","3,5,3,3,3",80,1.5169,75,2.5632,65,3,0.3333333333333333,compromise,Female,23,1
20,6,5,0.375,0,1.5,0.4,"1,1,1,1,1","0,0,1,0,1","1,1,0,1,0",40,2.567,35,2.3494,24,1,0.3125,compromise,Female,23,1
20,7,5,0.25,0,1.8,0.2,"1,1,1,1,1","0,0,0,1,0","1,1,1,0,1",20,3.9047,25,2.7599,37,2,0.29411764705882354,compromise,Female,23,1
20,8,5,0.625,0,2,0.6,"1,1,1,1,1","1,1,0,1,0","0,0,1,0,1",65,3.1334,55,4.1462,50,3,0.6666666666666666,compromise,Female,23,1
20,10,5,0.75,0,2,0.8,"1,1,1,1,1","1,1,0,1,1","0,0,1,0,0",80,1.9668,70,3.6631,65,3,0.6666666666666666,compromise,Female,23,1
20,11,5,0.5,0,1.6,0.6,"1,1,1,1,1","1,0,1,0,1","0,1,0,1,0",55,2.3168,45,6.8305,37,2,0.5555555555555556,compromise,Female,23,1
20,12,45,0.875,0,1.8,0.866666667,"9,9,9,9,9","7,9,8,8,7","2,0,1,1,2",90,1.5664,90,2.5964,73,1,-0,stay,Female,23,1
20,13,45,0.25,0,1.5,0.244444444,"9,9,9,9,9","2,1,3,2,3","7,8,6,7,6",13,4.6501,13,3.1131,31,2,0,stay,Female,23,1
20,14,45,0.625,0,1.6,0.622222222,"9,9,9,9,9","4,5,7,7,5","5,4,2,2,4",75,1.4867,75,1.9663,60,1,-0,stay,Female,23,1
20,15,45,0.75,0,1.5,0.755555556,"9,9,9,9,9","6,7,7,7,7","3,2,2,2,2",75,1.4538,85,6.8109,91,3,0.625,compromise,Female,23,1
20,16,45,0.375,0,1.6,0.377777778,"9,9,9,9,9","3,4,6,2,2","6,5,3,7,7",20,1.8168,25,4.2127,38,3,0.2777777777777778,compromise,Female,23,1
20,18,45,0.125,0,1.6,0.133333333,"9,9,9,9,9","1,1,2,1,1","8,8,7,8,8",15,2.4495,10,2.8632,0,2,0.3333333333333333,compromise,Female,23,1
20,20,5,0.75,0,1.5,0.8,"1,1,1,1,1","1,0,1,1,1","0,1,0,0,0",90,1.2834,85,3.3134,72,2,0.2777777777777778,compromise,Female,23,1
20,21,5,0.125,0,2,0.2,"1,1,1,1,1","1,0,0,0,0","0,1,1,1,1",20,2.9003,10,2.4795,2,1,0.5555555555555556,compromise,Female,23,1
20,22,5,0.25,0,1.8,0.2,"1,1,1,1,1","0,1,0,0,0","1,0,1,1,1",20,1.2333,25,2.7623,37,1,0.29411764705882354,compromise,Female,23,1
20,23,45,0.5,0,1.8,0.511111111,"9,9,9,9,9","6,5,3,4,5","3,4,6,5,4",50,1.4334,60,5.7866,65,3,0.6666666666666666,compromise,Female,23,1
20,24,45,0.125,0,1.5,0.133333333,"9,9,9,9,9","1,1,2,0,2","8,8,7,9,7",15,3.0009,10,4.1492000000000004,0,3,0.3333333333333333,compromise,Female,23,1
20,25,5,0.125,0,1.9,0.2,"1,1,1,1,1","0,0,0,0,1","1,1,1,1,0",15,4.4846,15,3.0766,0,2,-0,stay,Female,23,1
20,27,5,0.625,0,2,0.6,"1,1,1,1,1","1,0,1,1,0","0,1,0,0,1",70,3.3005,70,1.8966,55,2,-0,stay,Female,23,1
20,28,5,0.25,0,1.7,0.2,"1,1,1,1,1","0,0,0,1,0","1,1,1,0,1",15,3.5841,25,5.7805,33,3,0.5555555555555556,compromise,Female,23,1
20,30,45,0.25,0,1.6,0.244444444,"9,9,9,9,9","2,3,2,2,2","7,6,7,7,7",20,1.3321,20,1.6462,36,1,0,stay,Female,23,1
20,31,5,0.5,0,2,0.6,"1,1,1,1,1","1,0,1,0,1","0,1,0,1,0",50,1.6836,50,2.88,65,1,0,stay,Female,23,1
20,32,45,0.625,0,1.6,0.622222222,"9,9,9,9,9","7,7,6,4,4","2,2,3,5,5",65,1.5501,60,2.3631,50,2,0.3333333333333333,compromise,Female,23,1
20,33,5,0.75,0,1.6,0.8,"1,1,1,1,1","1,1,1,0,1","0,0,0,1,0",75,1.6169,70,3.4801,60,1,0.3333333333333333,compromise,Female,23,1
20,34,45,0.375,0,1.5,0.377777778,"9,9,9,9,9","4,1,5,3,4","5,8,4,6,5",35,1.8168,40,2.1964,50,1,0.3333333333333333,compromise,Female,23,1
20,35,5,0.375,0,1.8,0.4,"1,1,1,1,1","0,0,1,1,0","1,1,0,0,1",40,1.6666,30,8.3804,25,3,0.6666666666666666,compromise,Female,23,1
20,36,5,0.5,0,1.8,0.6,"1,1,1,1,1","1,0,0,1,1","0,1,1,0,0",55,1.3334,50,5.2635,40,3,0.3333333333333333,compromise,Female,23,1
20,38,45,0.5,0,1.6,0.511111111,"9,9,9,9,9","6,1,4,8,4","3,8,5,1,5",60,1.7335,50,2.2458,43,2,0.5882352941176471,compromise,Female,23,1
20,39,45,0.5,0,1.9,0.511111111,"9,9,9,9,9","5,4,6,2,6","4,5,3,7,3",55,1.4381,55,5.2266,40,1,-0,stay,Female,23,1
20,41,5,0.125,0,2,0.2,"1,1,1,1,1","0,0,1,0,0","1,1,0,1,1",15,1.7667,15,2.9457,0,3,-0,stay,Female,23,1
20,42,45,0.875,0,1.9,0.866666667,"9,9,9,9,9","8,9,7,7,8","1,0,2,2,1",85,1.6171,90,2.9607,100,2,0.3333333333333333,compromise,Female,23,1
20,43,45,0.25,0,1.8,0.244444444,"9,9,9,9,9","0,4,3,3,1","9,5,6,6,8",20,1.2835,25,3.5134,37,3,0.29411764705882354,compromise,Female,23,1
20,45,5,0.875,0,1.8,0.8,"1,1,1,1,1","0,1,1,1,1","1,0,0,0,0",80,1.2326,90,2.3857,95,1,0.6666666666666666,compromise,Female,23,1
20,47,5,0.875,0,1.8,0.8,"1,1,1,1,1","1,1,0,1,1","0,0,1,0,0",85,1.9672,85,5.9138,100,3,0,stay,Female,23,1
20,49,45,0.375,0,1.9,0.377777778,"9,9,9,9,9","7,3,3,1,3","2,6,6,8,6",45,1.2368,40,2.1267,29,2,0.3125,compromise,Female,23,1
20,50,45,0.75,0,1.6,0.755555556,"9,9,9,9,9","7,7,6,8,6","2,2,3,1,3",80,1.637,70,2.2824,63,2,0.5882352941176471,compromise,Female,23,1
20,51,45,0.75,0,1.6,0.755555556,"9,9,9,9,9","9,6,7,5,7","0,3,2,4,2",85,1.6207,85,1.61,69,1,-0,stay,Female,23,1
20,52,5,0.875,0,1.6,0.8,"1,1,1,1,1","1,0,1,1,1","0,1,0,0,0",80,2.4334,85,4.2806,97,2,0.29411764705882354,compromise,Female,23,1
20,53,5,0.375,0,1.7,0.4,"1,1,1,1,1","1,0,1,0,0","0,1,0,1,1",50,3.2504,40,2.7468,35,2,0.6666666666666666,compromise,Female,23,1
20,54,45,0.125,0,2,0.133333333,"9,9,9,9,9","1,1,2,1,1","8,8,7,8,8",10,0.8832,15,1.4299,26,1,0.3125,compromise,Female,23,1
23,1,45,0.25,0,1.7,0.244444444,"9,9,9,9,9","2,5,1,3,0","7,4,8,6,9",30,2.6509,30,2.0277,14,1,-0,stay,Female,24,1
23,5,5,0.75,0,1.5,0.8,"1,1,1,1,1","0,1,1,1,1","1,0,0,0,0",80,2.9021,75,4.7127,65,1,0.3333333333333333,compromise,Female,24,1
23,6,45,0.125,0,1.8,0.133333333,"9,9,9,9,9","2,1,1,1,1","7,8,8,8,8",15,3.5513,15,3.846,0,2,-0,stay,Female,24,1
23,7,45,0.25,0,1.6,0.244444444,"9,9,9,9,9","1,3,1,2,4","8,6,8,7,5",15,3.0849,20,1.7617,30,3,0.3333333333333333,compromise,Female,24,1
23,8,5,0.625,0,1.8,0.6,"1,1,1,1,1","1,1,0,0,1","0,0,1,1,0",50,3.9352,60,2.109,66,2,0.625,compromise,Female,24,1
23,9,45,0.625,0,1.9,0.622222222,"9,9,9,9,9","6,9,4,5,4","3,0,5,4,5",45,1.7671,55,1.6279,62,2,0.5882352941176471,compromise,Female,24,1
23,10,45,0.875,0,2,0.866666667,"9,9,9,9,9","8,9,7,8,7","1,0,2,1,2",90,2.2176,90,2.5955,72,1,-0,stay,Female,24,1
23,11,45,0.625,0,1.5,0.622222222,"9,9,9,9,9","4,6,7,4,7","5,3,2,5,2",75,1.6177,75,1.9381,60,1,-0,stay,Female,24,1
23,13,5,0.25,0,2,0.2,"1,1,1,1,1","0,0,0,0,1","1,1,1,1,0",5,1.9508,10,1.7609,23,1,0.2777777777777778,compromise,Female,24,1
23,14,45,0.625,0,1.6,0.622222222,"9,9,9,9,9","4,6,6,7,5","5,3,3,2,4",40,3.7009,50,1.7438,58,3,0.5555555555555556,compromise,Female,24,1
23,15,45,0.125,0,2,0.133333333,"9,9,9,9,9","0,1,0,4,1","9,8,9,5,8",10,2.1689,15,2.0608,26,3,0.3125,compromise,Female,24,1
23,16,5,0.75,0,1.7,0.8,"1,1,1,1,1","1,1,1,0,1","0,0,0,1,0",60,3.6014,60,1.811,76,2,0,stay,Female,24,1
23,19,5,0.5,0,1.7,0.6,"1,1,1,1,1","1,0,1,0,1","0,1,0,1,0",60,2.4183,50,2.0776,44,2,0.625,compromise,Female,24,1
23,20,45,0.875,0,2,0.866666667,"9,9,9,9,9","8,8,7,8,8","1,1,2,1,1",90,1.4994,80,2.4286,75,2,0.6666666666666666,compromise,Female,24,1
23,21,45,0.25,0,1.8,0.244444444,"9,9,9,9,9","2,3,3,1,2","7,6,6,8,7",20,1.6017,25,2.1276,35,2,0.3333333333333333,compromise,Female,24,1
23,22,45,0.75,0,1.5,0.755555556,"9,9,9,9,9","9,7,7,6,5","0,2,2,3,4",40,2.134,55,2.2289,55,3,1,copy,Female,24,1
23,23,5,0.75,0,1.9,0.8,"1,1,1,1,1","1,1,1,0,1","0,0,0,1,0",60,2.5681,75,1.7954,75,3,1,copy,Female,24,1
23,24,45,0.375,0,1.8,0.377777778,"9,9,9,9,9","4,2,4,3,4","5,7,5,6,5",30,1.9508,30,0.9774,47,1,0,stay,Female,24,1
23,25,45,0.375,0,1.6,0.377777778,"9,9,9,9,9","2,4,4,3,4","7,5,5,6,5",30,2.151,30,1.1284,45,2,0,stay,Female,24,1
23,28,45,0.375,0,2,0.377777778,"9,9,9,9,9","3,4,3,3,4","6,5,6,6,5",35,2.4176,45,1.828,53,3,0.5555555555555556,compromise,Female,24,1
23,29,5,0.375,0,2,0.4,"1,1,1,1,1","1,0,1,0,0","0,1,0,1,1",35,3.5829,45,2.0459,50,1,0.6666666666666666,compromise,Female,24,1
23,30,45,0.75,0,2,0.755555556,"9,9,9,9,9","7,9,7,7,4","2,0,2,2,5",80,1.4169,75,2.1276,65,1,0.3333333333333333,compromise,Female,24,1
23,31,45,0.875,0,1.5,0.866666667,"9,9,9,9,9","9,9,8,6,7","0,0,1,3,2",80,2.0837,85,2.6286,96,3,0.3125,compromise,Female,24,1
23,32,45,0.5,0,2,0.511111111,"9,9,9,9,9","6,4,4,6,3","3,5,5,3,6",50,1.3987,45,1.7127,32,3,0.2777777777777778,compromise,Female,24,1
23,33,45,0.75,0,1.9,0.755555556,"9,9,9,9,9","8,6,4,7,9","1,3,5,2,0",75,1.5336,65,1.6936,57,2,0.5555555555555556,compromise,Female,24,1
23,35,5,0.625,0,1.8,0.6,"1,1,1,1,1","0,1,1,1,0","1,0,0,0,1",60,1.9172,60,1.0779,75,3,0,stay,Female,24,1
23,36,45,0.125,0,1.5,0.133333333,"9,9,9,9,9","0,1,0,0,5","9,8,9,9,4",10,1.2843,15,2.7099,27,1,0.29411764705882354,compromise,Female,24,1
23,37,5,0.125,0,1.8,0.2,"1,1,1,1,1","0,0,0,1,0","1,1,1,0,1",20,1.1504,20,0.9444,3,2,-0,stay,Female,24,1
23,38,5,0.375,0,1.6,0.4,"1,1,1,1,1","0,1,1,0,0","1,0,0,1,1",40,1.4996,40,0.8602,25,3,-0,stay,Female,24,1
23,39,45,0.5,0,1.7,0.511111111,"9,9,9,9,9","5,3,4,6,5","4,6,5,3,4",55,1.2839,55,1.2101,40,1,-0,stay,Female,24,1
23,40,5,0.5,0,1.6,0.6,"1,1,1,1,1","1,0,1,0,1","0,1,0,1,0",60,1.3004,60,1.16,45,3,-0,stay,Female,24,1
23,42,5,0.875,0,1.8,0.8,"1,1,1,1,1","1,0,1,1,1","0,1,0,0,0",80,1.0016,80,1.0101,98,3,0,stay,Female,24,1
23,43,5,0.875,0,1.6,0.8,"1,1,1,1,1","0,1,1,1,1","1,0,0,0,0",80,1.4012,80,1.2102,95,1,0,stay,Female,24,1
23,44,5,0.375,0,1.5,0.4,"1,1,1,1,1","1,0,1,0,0","0,1,0,1,1",40,1.8673,40,1.0948,25,2,-0,stay,Female,24,1
23,46,5,0.5,0,2,0.6,"1,1,1,1,1","1,1,0,0,1","0,0,1,1,0",60,0.8501,60,1.1783,43,1,-0,stay,Female,24,1
23,47,5,0.125,0,1.8,0.2,"1,1,1,1,1","0,1,0,0,0","1,0,1,1,1",20,1.0163,20,0.8614,4,3,-0,stay,Female,24,1
23,49,5,0.25,0,1.5,0.2,"1,1,1,1,1","1,0,0,0,0","0,1,1,1,1",20,0.8496,20,1.4146,38,2,0,stay,Female,24,1
23,51,5,0.25,0,2,0.2,"1,1,1,1,1","1,0,0,0,0","0,1,1,1,1",20,0.9837,20,1.2281,37,3,0,stay,Female,24,1
23,52,45,0.5,0,1.5,0.511111111,"9,9,9,9,9","2,6,4,5,6","7,3,5,4,3",50,2.9665,50,0.8605,65,2,0,stay,Female,24,1
23,54,5,0.625,0,2,0.6,"1,1,1,1,1","0,1,1,0,1","1,0,0,1,0",60,1.5664,60,1.0945,75,1,0,stay,Female,24,1
24,1,45,0.875,0,1.5,0.866666667,"9,9,9,9,9","8,8,8,8,7","1,1,1,1,2",80,2.4031,90,4.3091,98,3,0.5555555555555556,compromise,Male,38,1
24,2,45,0.625,0,1.9,0.622222222,"9,9,9,9,9","4,5,7,7,5","5,4,2,2,4",60,1.8499,65,3.2289,75,1,0.3333333333333333,compromise,Male,38,1
24,3,5,0.25,0,1.8,0.2,"1,1,1,1,1","0,0,1,0,0","1,1,0,1,1",30,3.5165,25,3.4177,14,2,0.3125,compromise,Male,38,1
24,4,45,0.75,0,1.5,0.755555556,"9,9,9,9,9","4,7,6,8,9","5,2,3,1,0",75,1.988,75,2.8135,60,2,-0,stay,Male,38,1
24,5,5,0.625,0,1.8,0.6,"1,1,1,1,1","0,1,0,1,1","1,0,1,0,0",70,5.7997,60,4.6678,53,3,0.5882352941176471,compromise,Male,38,1
24,6,45,0.625,0,1.5,0.622222222,"9,9,9,9,9","6,6,7,4,5","3,3,2,5,4",75,2.3709,70,3.1791,60,2,0.3333333333333333,compromise,Male,38,1
24,8,45,0.75,0,1.8,0.755555556,"9,9,9,9,9","9,7,6,5,7","0,2,3,4,2",80,3.5874,75,2.9755,63,1,0.29411764705882354,compromise,Male,38,1
24,11,5,0.625,0,1.8,0.6,"1,1,1,1,1","1,1,1,0,0","0,0,0,1,1",95,6.2712,85,4.0469,80,2,0.6666666666666666,compromise,Male,38,1
24,12,5,0.5,0,1.5,0.6,"1,1,1,1,1","1,0,1,0,1","0,1,0,1,0",75,3.4708,70,3.1971,60,2,0.3333333333333333,compromise,Male,38,1
24,14,45,0.875,0,1.5,0.866666667,"9,9,9,9,9","8,9,6,9,7","1,0,3,0,2",90,1.0831,80,3.3298,75,1,0.6666666666666666,compromise,Male,38,1
24,16,45,0.375,0,1.7,0.377777778,"9,9,9,9,9","5,3,3,5,1","4,6,6,4,8",30,2.8828,37,4.3688,45,3,0.4666666666666667,compromise,Male,38,1
24,17,5,0.5,0,1.7,0.6,"1,1,1,1,1","1,1,1,0,0","0,0,0,1,1",60,4.5293,55,2.5962,44,3,0.3125,compromise,Male,38,1
24,19,45,0.875,0,1.6,0.866666667,"9,9,9,9,9","8,8,9,7,7","1,1,0,2,2",85,1.5385,85,4.0127,100,2,0,stay,Male,38,1
24,21,5,0.75,0,2,0.8,"1,1,1,1,1","1,1,1,0,1","0,0,0,1,0",90,1.7707,85,2.4263,75,3,0.3333333333333333,compromise,Male,38,1
24,22,45,0.75,0,2,0.755555556,"9,9,9,9,9","9,8,4,7,6","0,1,5,2,3",87,1.65,80,3.6514,70,3,0.4117647058823529,compromise,Male,38,1
24,23,45,0.5,0,2,0.511111111,"9,9,9,9,9","5,7,7,3,1","4,2,2,6,8",50,1.2873000000000001,55,2.2415,65,2,0.3333333333333333,compromise,Male,38,1
24,26,5,0.375,0,1.6,0.4,"1,1,1,1,1","0,0,1,0,1","1,1,0,1,0",40,5.3669,35,2.5118,25,2,0.3333333333333333,compromise,Male,38,1
24,27,5,0.125,0,1.7,0.2,"1,1,1,1,1","0,1,0,0,0","1,0,1,1,1",20,3.7547,17,2.4757,5,1,0.2,compromise,Male,38,1
24,31,5,0.125,0,1.5,0.2,"1,1,1,1,1","0,0,0,1,0","1,1,1,0,1",20,5.066,15,3.8515,3,3,0.29411764705882354,compromise,Male,38,1
24,32,5,0.875,0,1.9,0.8,"1,1,1,1,1","0,1,1,1,1","1,0,0,0,0",80,1.6874,85,3.3592,95,3,0.3333333333333333,compromise,Male,38,1
24,33,5,0.25,0,2,0.2,"1,1,1,1,1","0,1,0,0,0","1,0,1,1,1",20,1.7377,25,4.3755,35,1,0.3333333333333333,compromise,Male,38,1
24,35,5,0.375,0,1.5,0.4,"1,1,1,1,1","1,0,1,0,0","0,1,0,1,1",38,7.3543,35,5.1254,22,1,0.1875,compromise,Male,38,1
24,37,5,0.375,0,1.6,0.4,"1,1,1,1,1","1,0,0,0,1","0,1,1,1,0",40,3.2999,35,2.513,24,3,0.3125,compromise,Male,38,1
24,38,45,0.375,0,1.7,0.377777778,"9,9,9,9,9","2,5,5,3,2","7,4,4,6,7",30,2.6875,40,2.6092,48,2,0.5555555555555556,compromise,Male,38,1
24,39,5,0.125,0,1.5,0.2,"1,1,1,1,1","1,0,0,0,0","0,1,1,1,1",20,1.5165,15,2.5958,5,2,0.3333333333333333,compromise,Male,38,1
24,40,5,0.25,0,1.8,0.2,"1,1,1,1,1","0,1,0,0,0","1,0,1,1,1",20,1.7998,25,2.3794,35,3,0.3333333333333333,compromise,Male,38,1
24,43,45,0.5,0,1.8,0.511111111,"9,9,9,9,9","4,5,2,7,5","5,4,7,2,4",50,1.5884,45,2.4466,33,1,0.29411764705882354,compromise,Male,38,1
24,44,45,0.25,0,2,0.244444444,"9,9,9,9,9","1,4,3,1,2","8,5,6,8,7",30,1.3498000000000001,27,2.9128,15,3,0.2,compromise,Male,38,1
24,45,5,0.75,0,1.8,0.8,"1,1,1,1,1","1,1,1,0,1","0,0,0,1,0",80,1.5664,75,2.5294,62,1,0.2777777777777778,compromise,Male,38,1
24,47,45,0.375,0,1.7,0.377777778,"9,9,9,9,9","2,5,4,2,4","7,4,5,7,5",45,2.1496,35,2.6294,27,1,0.5555555555555556,compromise,Male,38,1
24,49,45,0.5,0,1.7,0.511111111,"9,9,9,9,9","5,6,4,5,3","4,3,5,4,6",65,2.4547,60,2.4084,50,3,0.3333333333333333,compromise,Male,38,1
24,50,45,0.625,0,1.8,0.622222222,"9,9,9,9,9","6,6,7,5,4","3,3,2,4,5",75,1.5879,70,2.4808,58,3,0.29411764705882354,compromise,Male,38,1
24,51,45,0.125,0,1.5,0.133333333,"9,9,9,9,9","1,1,0,2,2","8,8,9,7,7",20,1.621,15,2.2475,5,3,0.3333333333333333,compromise,Male,38,1
24,52,45,0.25,0,1.7,0.244444444,"9,9,9,9,9","2,1,1,4,3","7,8,8,5,6",35,1.7047,30,2.6471,20,2,0.3333333333333333,compromise,Male,38,1
24,53,5,0.5,0,1.6,0.6,"1,1,1,1,1","1,1,0,1,0","0,0,1,0,1",60,2.2162,55,2.2279,43,1,0.29411764705882354,compromise,Male,38,1
24,54,5,0.75,0,1.9,0.8,"1,1,1,1,1","0,1,1,1,1","1,0,0,0,0",80,2.2211,80,2.8922,63,2,-0,stay,Male,38,1
25,1,45,0.125,0,1.6,0.133333333,"9,9,9,9,9","1,2,1,2,0","8,7,8,7,9",20,1.5325,20,1.2935,2,1,-0,stay,Male,20,1
25,2,45,0.625,0,1.8,0.622222222,"9,9,9,9,9","9,5,5,6,3","0,4,4,3,6",75,1.2704,70,5.2419,57,2,0.2777777777777778,compromise,Male,20,1
25,3,5,0.125,0,1.7,0.2,"1,1,1,1,1","0,0,0,1,0","1,1,1,0,1",15,1.3496,8,1.9275,0,2,0.4666666666666667,compromise,Male,20,1
25,4,45,0.75,0,1.9,0.755555556,"9,9,9,9,9","9,7,7,5,6","0,2,2,4,3",80,2.9854,75,4.1258,65,2,0.3333333333333333,compromise,Male,20,1
25,5,5,0.375,0,1.5,0.4,"1,1,1,1,1","0,1,1,0,0","1,0,0,1,1",30,2.0851,40,2.2435,45,2,0.6666666666666666,compromise,Male,20,1
25,6,45,0.875,0,1.8,0.866666667,"9,9,9,9,9","9,6,7,9,8","0,3,2,0,1",85,1.1163,85,2.1617,100,2,0,stay,Male,20,1
25,8,45,0.25,0,1.5,0.244444444,"9,9,9,9,9","4,1,2,1,3","5,8,7,8,6",32,1.5369,21,1.6929,16,1,0.6875,compromise,Male,20,1
25,9,45,0.875,0,1.6,0.866666667,"9,9,9,9,9","7,8,8,9,7","2,1,1,0,2",78,3.6818,78,1.4515,93,1,0,stay,Male,20,1
25,10,5,0.75,0,2,0.8,"1,1,1,1,1","0,1,1,1,1","1,0,0,0,0",70,1.6663,85,1.4942,85,3,1,copy,Male,20,1
25,12,5,0.25,0,2,0.2,"1,1,1,1,1","1,0,0,0,0","0,1,1,1,1",20,0.9668,28,2.3597,35,2,0.5333333333333333,compromise,Male,20,1
25,13,45,0.875,0,2,0.866666667,"9,9,9,9,9","7,7,7,9,9","2,2,2,0,0",80,0.6143,88,1.7454,97,3,0.47058823529411764,compromise,Male,20,1
25,15,5,0.875,0,1.8,0.8,"1,1,1,1,1","1,1,1,0,1","0,0,0,1,0",75,1.9982,75,3.6983,90,1,0,stay,Male,20,1
25,16,45,0.75,0,1.6,0.755555556,"9,9,9,9,9","6,6,6,9,7","3,3,3,0,2",75,1.9662,65,2.8445,60,3,0.6666666666666666,compromise,Male,20,1
25,17,45,0.125,0,1.8,0.133333333,"9,9,9,9,9","1,3,0,1,1","8,6,9,8,8",12,3.1158,20,5.0663,29,2,0.47058823529411764,compromise,Male,20,1
25,18,5,0.625,0,1.6,0.6,"1,1,1,1,1","0,0,1,1,1","1,1,0,0,0",50,1.3855,50,1.3753,67,1,0,stay,Male,20,1
25,19,45,0.5,0,1.8,0.511111111,"9,9,9,9,9","6,5,4,3,5","3,4,5,6,4",60,1.1162,45,2.7325,42,3,0.8333333333333334,compromise,Male,20,1
25,20,45,0.75,0,1.6,0.755555556,"9,9,9,9,9","8,8,7,6,5","1,1,2,3,4",65,1.2356,65,1.7918,80,1,0,stay,Male,20,1
25,21,45,0.375,0,1.5,0.377777778,"9,9,9,9,9","3,4,5,3,2","6,5,4,6,7",45,1.0687,45,1.6246,28,2,-0,stay,Male,20,1
25,22,45,0.125,0,1.8,0.133333333,"9,9,9,9,9","0,1,2,1,2","9,8,7,8,7",15,1.8494,10,2.3466,0,3,0.3333333333333333,compromise,Male,20,1
25,23,45,0.5,0,2,0.511111111,"9,9,9,9,9","7,5,4,3,4","2,4,5,6,5",40,2.0333,40,2.1081,55,1,0,stay,Male,20,1
25,24,5,0.375,0,1.9,0.4,"1,1,1,1,1","0,0,1,0,1","1,1,0,1,0",40,0.9973,35,2.5005,24,1,0.3125,compromise,Male,20,1
25,25,5,0.75,0,1.9,0.8,"1,1,1,1,1","1,1,0,1,1","0,0,1,0,0",75,2.1142,70,2.9771,60,2,0.3333333333333333,compromise,Male,20,1
25,30,5,0.125,0,1.6,0.2,"1,1,1,1,1","0,0,0,0,1","1,1,1,1,0",20,1.1643,5,3.1984,5,3,1,copy,Male,20,1
25,31,5,0.5,0,1.9,0.6,"1,1,1,1,1","1,1,1,0,0","0,0,0,1,1",40,1.4662,45,2.4812,55,1,0.3333333333333333,compromise,Male,20,1
25,33,5,0.125,0,1.5,0.2,"1,1,1,1,1","1,0,0,0,0","0,1,1,1,1",6,1.4485,8,2.6664,24,1,0.1111111111111111,compromise,Male,20,1
25,34,45,0.625,0,1.9,0.622222222,"9,9,9,9,9","6,5,6,5,6","3,4,3,4,3",65,1.0634,55,3.3923,50,3,0.6666666666666666,compromise,Male,20,1
25,36,5,0.375,0,1.8,0.4,"1,1,1,1,1","0,1,0,0,1","1,0,1,1,0",60,1.0651,50,2.1296,43,3,0.5882352941176471,compromise,Male,20,1
25,37,45,0.375,0,1.5,0.377777778,"9,9,9,9,9","3,3,4,2,5","6,6,5,7,4",35,1.8494,35,1.7438,50,1,0,stay,Male,20,1
25,38,5,0.25,0,1.5,0.2,"1,1,1,1,1","0,0,0,0,1","1,1,1,1,0",10,2.4663,15,2.2757,27,1,0.29411764705882354,compromise,Male,20,1
25,39,5,0.875,0,1.9,0.8,"1,1,1,1,1","1,1,1,1,0","0,0,0,0,1",90,1.7661,80,1.7791,73,2,0.5882352941176471,compromise,Male,20,1
25,41,45,0.25,0,1.9,0.244444444,"9,9,9,9,9","2,1,2,3,3","7,8,7,6,6",20,1.5494,25,1.2331,37,2,0.29411764705882354,compromise,Male,20,1
25,42,5,0.5,0,1.7,0.6,"1,1,1,1,1","1,0,1,0,1","0,1,0,1,0",38,1.1539,45,3.8911,54,2,0.4375,compromise,Male,20,1
25,43,5,0.5,0,1.9,0.6,"1,1,1,1,1","0,1,1,0,1","1,0,0,1,0",40,2.9458,55,1.6621,55,3,1,copy,Male,20,1
25,44,5,0.75,0,1.7,0.8,"1,1,1,1,1","1,1,1,0,1","0,0,0,1,0",77,2.0961,70,2.2155,60,1,0.4117647058823529,compromise,Male,20,1
25,45,45,0.25,0,1.8,0.244444444,"9,9,9,9,9","1,5,3,2,0","8,4,6,7,9",35,1.7293,25,2.4276,20,3,0.6666666666666666,compromise,Male,20,1
25,47,5,0.625,0,1.8,0.6,"1,1,1,1,1","0,1,1,1,0","1,0,0,0,1",35,2.4665,48,2.6979,51,3,0.8125,compromise,Male,20,1
25,48,45,0.5,0,1.7,0.511111111,"9,9,9,9,9","3,5,2,5,8","6,4,7,4,1",59,2.3668,58,1.8416,44,2,0.06666666666666667,compromise,Male,20,1
25,49,5,0.875,0,1.5,0.8,"1,1,1,1,1","1,0,1,1,1","0,1,0,0,0",66,3.499,80,1.7948,83,3,0.8235294117647058,compromise,Male,20,1
25,50,5,0.25,0,1.6,0.2,"1,1,1,1,1","1,0,0,0,0","0,1,1,1,1",16,3.8791,28,3.5493,31,3,0.8,compromise,Male,20,1
25,51,45,0.375,0,1.7,0.377777778,"9,9,9,9,9","5,4,3,3,2","4,5,6,6,7",42,1.167,35,2.8978,24,3,0.3888888888888889,compromise,Male,20,1
25,53,45,0.625,0,1.9,0.622222222,"9,9,9,9,9","8,7,5,3,5","1,2,4,6,4",68,2.5029,68,0.6427,51,1,-0,stay,Male,20,1
25,54,5,0.625,0,1.8,0.6,"1,1,1,1,1","0,1,1,0,1","1,0,0,1,0",55,1.0502,60,2.393,70,2,0.3333333333333333,compromise,Male,20,1
26,1,5,0.875,0,1.6,0.8,"1,1,1,1,1","0,1,1,1,1","1,0,0,0,0",80,4.915,80,3.5647,97,1,0,stay,Female,29,1
26,2,45,0.125,0,1.6,0.133333333,"9,9,9,9,9","1,0,2,3,0","8,9,7,6,9",15,3.0832,10,4.7317,0,3,0.3333333333333333,compromise,Female,29,1
26,3,5,0.875,0,1.6,0.8,"1,1,1,1,1","1,1,0,1,1","0,0,1,0,0",85,4.5498,90,3.6649,100,3,0.3333333333333333,compromise,Female,29,1
26,4,45,0.75,0,2,0.755555556,"9,9,9,9,9","8,7,7,6,6","1,2,2,3,3",70,4.0497,70,4.3645,88,1,0,stay,Female,29,1
26,6,45,0.375,0,1.5,0.377777778,"9,9,9,9,9","4,4,3,3,3","5,5,6,6,6",35,2.3164,40,2.6979,51,3,0.3125,compromise,Female,29,1
26,8,45,0.25,0,1.7,0.244444444,"9,9,9,9,9","2,2,1,3,3","7,7,8,6,6",20,5.1998,25,2.0879,37,1,0.29411764705882354,compromise,Female,29,1
26,9,5,0.5,0,1.9,0.6,"1,1,1,1,1","1,1,1,0,0","0,0,0,1,1",75,5.1711,70,2.6593,60,2,0.3333333333333333,compromise,Female,29,1
26,10,5,0.625,0,2,0.6,"1,1,1,1,1","1,1,0,0,1","0,0,1,1,0",65,3.9831,65,4.8481,50,3,-0,stay,Female,29,1
26,11,5,0.5,0,1.9,0.6,"1,1,1,1,1","0,0,1,1,1","1,1,0,0,0",80,4.0998,75,4.3481,65,1,0.3333333333333333,compromise,Female,29,1
26,12,45,0.625,0,1.9,0.622222222,"9,9,9,9,9","6,6,4,7,5","3,3,5,2,4",65,3.0998,60,2.6483,49,1,0.3125,compromise,Female,29,1
26,14,45,0.5,0,1.9,0.511111111,"9,9,9,9,9","6,4,2,6,5","3,5,7,3,4",60,2.001,60,3.331,44,1,-0,stay,Female,29,1
26,15,45,0.125,0,1.6,0.133333333,"9,9,9,9,9","3,1,1,0,1","6,8,8,9,8",15,1.5833,10,3.3314,0,2,0.3333333333333333,compromise,Female,29,1
26,16,45,0.625,0,1.6,0.622222222,"9,9,9,9,9","7,5,6,7,3","2,4,3,2,6",60,2.6997,65,3.7983,75,2,0.3333333333333333,compromise,Female,29,1
26,21,45,0.75,0,1.8,0.755555556,"9,9,9,9,9","6,6,7,6,9","3,3,2,3,0",75,2.2165,70,3.2816,57,2,0.2777777777777778,compromise,Female,29,1
26,23,45,0.25,0,1.8,0.244444444,"9,9,9,9,9","1,4,0,3,3","8,5,9,6,6",25,0.8998,25,2.5984,10,2,-0,stay,Female,29,1
26,24,45,0.375,0,1.9,0.377777778,"9,9,9,9,9","2,4,5,2,4","7,5,4,7,5",35,1.6998,35,2.0649,53,1,0,stay,Female,29,1
26,25,5,0.25,0,1.5,0.2,"1,1,1,1,1","0,0,0,1,0","1,1,1,0,1",15,3.3998,20,4.8149,30,2,0.3333333333333333,compromise,Female,29,1
26,26,45,0.25,0,2,0.244444444,"9,9,9,9,9","2,2,2,2,3","7,7,7,7,6",15,6.5666,20,2.2483,30,3,0.3333333333333333,compromise,Female,29,1
26,27,5,0.625,0,1.7,0.6,"1,1,1,1,1","0,0,1,1,1","1,1,0,0,0",75,3.2497,70,3.3982,57,1,0.2777777777777778,compromise,Female,29,1
26,28,5,0.375,0,1.9,0.4,"1,1,1,1,1","0,0,0,1,1","1,1,1,0,0",30,3.9821,30,3.2649,45,1,0,stay,Female,29,1
26,29,5,0.25,0,2,0.2,"1,1,1,1,1","1,0,0,0,0","0,1,1,1,1",10,2.7333,15,2.9146,25,3,0.3333333333333333,compromise,Female,29,1
26,30,5,0.875,0,1.8,0.8,"1,1,1,1,1","1,0,1,1,1","0,1,0,0,0",60,5.1832,65,2.1816,75,2,0.3333333333333333,compromise,Female,29,1
26,32,5,0.375,0,1.9,0.4,"1,1,1,1,1","0,1,0,0,1","1,0,1,1,0",30,4.7832,35,1.9213,45,3,0.3333333333333333,compromise,Female,29,1
26,33,5,0.375,0,1.8,0.4,"1,1,1,1,1","1,0,1,0,0","0,1,0,1,1",30,6.0772,34,7.3643,48,2,0.2222222222222222,compromise,Female,29,1
26,35,5,0.625,0,1.8,0.6,"1,1,1,1,1","0,1,1,1,0","1,0,0,0,1",65,3.933,60,3.798,49,2,0.3125,compromise,Female,29,1
26,36,5,0.125,0,1.6,0.2,"1,1,1,1,1","1,0,0,0,0","0,1,1,1,1",25,3.2201,15,3.4158,9,2,0.625,compromise,Female,29,1
26,38,45,0.875,0,1.9,0.866666667,"9,9,9,9,9","7,6,8,9,9","2,3,1,0,0",92,2.8996,80,2.2311,75,3,0.7058823529411765,compromise,Female,29,1
26,40,45,0.875,0,1.8,0.866666667,"9,9,9,9,9","7,8,9,8,7","2,1,0,1,2",90,2.0165,90,2.6982,75,1,-0,stay,Female,29,1
26,42,5,0.75,0,1.9,0.8,"1,1,1,1,1","1,1,1,1,0","0,0,0,0,1",80,3.0832,70,3.6648,62,2,0.5555555555555556,compromise,Female,29,1
26,43,45,0.5,0,1.6,0.511111111,"9,9,9,9,9","4,5,6,3,5","5,4,3,6,4",50,1.2994,55,3.9314,68,2,0.2777777777777778,compromise,Female,29,1
26,44,5,0.125,0,1.8,0.2,"1,1,1,1,1","0,0,0,1,0","1,1,1,0,1",20,3.6997,20,3.8982,2,1,-0,stay,Female,29,1
26,45,5,0.125,0,1.9,0.2,"1,1,1,1,1","0,0,1,0,0","1,1,0,1,1",20,4.4332,10,3.5149,3,3,0.5882352941176471,compromise,Female,29,1
26,46,45,0.875,0,1.8,0.866666667,"9,9,9,9,9","9,8,6,8,8","0,1,3,1,1",85,2.4498,88,5.2818,100,2,0.2,compromise,Female,29,1
26,47,45,0.5,0,1.9,0.511111111,"9,9,9,9,9","5,5,6,4,3","4,4,3,5,6",45,2.6835,55,3.6421,62,3,0.5882352941176471,compromise,Female,29,1
26,48,45,0.375,0,1.8,0.377777778,"9,9,9,9,9","3,5,3,5,1","6,4,6,4,8",35,5.3166,35,4.0977,50,2,0,stay,Female,29,1
26,49,5,0.75,0,1.9,0.8,"1,1,1,1,1","1,0,1,1,1","0,1,0,0,0",65,2.7162,75,2.8654,83,3,0.5555555555555556,compromise,Female,29,1
26,50,45,0.125,0,1.5,0.133333333,"9,9,9,9,9","0,3,2,1,0","9,6,7,8,9",19,3.0665,19,2.7047,2,1,-0,stay,Female,29,1
26,51,45,0.625,0,1.5,0.622222222,"9,9,9,9,9","4,4,9,6,5","5,5,0,3,4",75,2.7498,70,2.0651,60,3,0.3333333333333333,compromise,Female,29,1
26,52,5,0.5,0,1.6,0.6,"1,1,1,1,1","1,0,1,0,1","0,1,0,1,0",75,2.5164,70,2.2817,60,3,0.3333333333333333,compromise,Female,29,1
26,53,5,0.75,0,1.7,0.8,"1,1,1,1,1","1,1,1,1,0","0,0,0,0,1",85,7.4832,80,4.1145,69,1,0.3125,compromise,Female,29,1
26,54,45,0.75,0,1.6,0.755555556,"9,9,9,9,9","5,6,8,7,8","4,3,1,2,1",85,2.6165,75,4.4484,70,3,0.6666666666666666,compromise,Female,29,1
27,2,45,0.5,0,2,0.511111111,"9,9,9,9,9","6,5,5,3,4","3,4,4,6,5",55,1.849,50,2.638,37,2,0.2777777777777778,compromise,Male,30,1
27,4,45,0.625,0,1.7,0.622222222,"9,9,9,9,9","3,7,5,9,4","6,2,4,0,5",40,1.75,40,2.398,55,1,0,stay,Male,30,1
27,5,45,0.875,0,1.8,0.866666667,"9,9,9,9,9","8,9,7,6,9","1,0,2,3,0",90,1.473,88,2.9,72,3,0.1111111111111111,compromise,Male,30,1
27,6,45,0.25,0,1.8,0.244444444,"9,9,9,9,9","1,3,1,3,3","8,6,8,6,6",20,1.745,25,2.297,35,3,0.3333333333333333,compromise,Male,30,1
27,8,45,0.125,0,1.9,0.133333333,"9,9,9,9,9","1,0,1,3,1","8,9,8,6,8",7,1.874,10,3.524,25,2,0.16666666666666666,compromise,Male,30,1
27,9,5,0.5,0,2,0.6,"1,1,1,1,1","0,1,1,0,1","1,0,0,1,0",50,1.632,50,3.017,33,1,-0,stay,Male,30,1
27,10,5,0.25,0,1.9,0.2,"1,1,1,1,1","0,0,1,0,0","1,1,0,1,1",30,3.199,30,2.302,15,1,-0,stay,Male,30,1
27,11,5,0.875,0,1.7,0.8,"1,1,1,1,1","0,1,1,1,1","1,0,0,0,0",70,2.283,80,4.599,85,3,0.6666666666666666,compromise,Male,30,1
27,12,5,0.625,0,1.6,0.6,"1,1,1,1,1","1,0,1,0,1","0,1,0,1,0",80,2.445,75,2.549,65,1,0.3333333333333333,compromise,Male,30,1
27,13,45,0.875,0,1.5,0.866666667,"9,9,9,9,9","6,9,7,9,8","3,0,2,0,1",80,1.98,87,3.772,97,1,0.4117647058823529,compromise,Male,30,1
27,14,5,0.375,0,1.9,0.4,"1,1,1,1,1","1,0,0,1,0","0,1,1,0,1",50,1.451,45,4.167,33,2,0.29411764705882354,compromise,Male,30,1
27,15,45,0.5,0,1.7,0.511111111,"9,9,9,9,9","7,1,4,6,5","2,8,5,3,4",50,1.583,55,2.948,65,3,0.3333333333333333,compromise,Male,30,1
27,16,5,0.875,0,1.7,0.8,"1,1,1,1,1","1,1,0,1,1","0,0,1,0,0",60,1.883,65,2.349,75,2,0.3333333333333333,compromise,Male,30,1
27,17,45,0.625,0,2,0.622222222,"9,9,9,9,9","7,7,5,4,5","2,2,4,5,4",60,2.16,65,2.054,75,3,0.3333333333333333,compromise,Male,30,1
27,19,5,0.75,0,1.5,0.8,"1,1,1,1,1","1,0,1,1,1","0,1,0,0,0",50,1.5,55,4.138,65,1,0.3333333333333333,compromise,Male,30,1
27,20,45,0.75,0,1.9,0.755555556,"9,9,9,9,9","8,6,6,6,8","1,3,3,3,1",77,3.383,75,3.765,60,1,0.11764705882352941,compromise,Male,30,1
27,21,5,0.875,0,1.5,0.8,"1,1,1,1,1","1,1,1,1,0","0,0,0,0,1",70,2.534,77,5.035,86,1,0.4375,compromise,Male,30,1
27,22,45,0.75,0,1.6,0.755555556,"9,9,9,9,9","7,8,5,6,8","2,1,4,3,1",67,3.667,70,4.131,84,2,0.17647058823529413,compromise,Male,30,1
27,23,5,0.125,0,1.7,0.2,"1,1,1,1,1","0,0,1,0,0","1,1,0,1,1",40,2.899,25,5.516,24,1,0.9375,compromise,Male,30,1
27,25,5,0.375,0,2,0.4,"1,1,1,1,1","1,0,1,0,0","0,1,0,1,1",40,2.949,35,3.233,25,1,0.3333333333333333,compromise,Male,30,1
27,28,5,0.25,0,1.9,0.2,"1,1,1,1,1","0,0,1,0,0","1,1,0,1,1",50,1.349,35,5.233,35,3,1,copy,Male,30,1
27,29,5,0.25,0,1.6,0.2,"1,1,1,1,1","0,0,0,1,0","1,1,1,0,1",50,2.25,35,4.799,35,2,1,copy,Male,30,1
27,30,5,0.125,0,1.6,0.2,"1,1,1,1,1","0,0,1,0,0","1,1,0,1,1",30,1.668,13,3.898,12,3,0.9444444444444444,compromise,Male,30,1
27,31,5,0.375,0,1.7,0.4,"1,1,1,1,1","0,1,0,1,0","1,0,1,0,1",50,1.735,40,3.832,35,3,0.6666666666666666,compromise,Male,30,1
27,33,5,0.5,0,1.9,0.6,"1,1,1,1,1","1,1,1,0,0","0,0,0,1,1",30,2.6,40,6.083,48,3,0.5555555555555556,compromise,Male,30,1
27,35,45,0.875,0,1.5,0.866666667,"9,9,9,9,9","8,8,8,8,7","1,1,1,1,2",90,1.25,88,3.25,75,2,0.13333333333333333,compromise,Male,30,1
27,36,45,0.375,0,1.5,0.377777778,"9,9,9,9,9","3,4,4,2,4","6,5,5,7,5",35,3.118,35,4.385,50,2,0,stay,Male,30,1
27,37,5,0.625,0,2,0.6,"1,1,1,1,1","1,0,1,0,1","0,1,0,1,0",50,3.151,60,4.964,66,2,0.625,compromise,Male,30,1
27,38,45,0.375,0,2,0.377777778,"9,9,9,9,9","2,4,3,3,5","7,5,6,6,4",40,2.35,34,5.752,25,3,0.4,compromise,Male,30,1
27,39,45,0.375,0,1.9,0.377777778,"9,9,9,9,9","3,1,3,4,6","6,8,6,5,3",35,4.767,35,4.282,52,1,0,stay,Male,30,1
27,40,45,0.125,0,1.8,0.133333333,"9,9,9,9,9","1,3,0,1,1","8,6,9,8,8",10,1.599,15,3.635,27,3,0.29411764705882354,compromise,Male,30,1
27,41,45,0.125,0,1.7,0.133333333,"9,9,9,9,9","2,0,1,3,0","7,9,8,6,9",10,3.201,13,3.114,25,1,0.2,compromise,Male,30,1
27,45,5,0.125,0,1.7,0.2,"1,1,1,1,1","0,1,0,0,0","1,0,1,1,1",50,2.5,37,4.299,34,2,0.8125,compromise,Male,30,1
27,46,5,0.625,0,1.7,0.6,"1,1,1,1,1","0,1,1,0,1","1,0,0,1,0",60,1.684,75,4.143,75,3,1,copy,Male,30,1
27,47,5,0.5,0,1.5,0.6,"1,1,1,1,1","1,1,0,0,1","0,0,1,1,0",50,1.684,35,4.68,35,2,1,copy,Male,30,1
